rownames,STUDYID,USUBJID,SUBJID,SITEID,COUNTRY,DOMAIN,RFSTDTC,RFENDTC,RFXSTDTC,RFXENDTC,RFPENDTC,SCRFDT,FRVDT,DTHDTC,DTHADY,DTHFL,LDDTHELD,LDDTHGR1,DTH30FL,DTHA30FL,DTHDOM,DTHB30FL,ASEQ,REGION1,DMDTC,DMDY,AGE,AGEU,AGEGR1,SEX,RACE,RACEGR1,ETHNIC,SAFFL,ARM,ARMCD,ACTARM,ACTARMCD,TRT01P,TRT01A,TRTSDT,TRTSDTM,TRTSTMF,TRTEDT,TRTEDTM,TRTETMF,EOSSTT,EOSDT,RFICDTC,RANDDT,LSTALVDT,TRTDURD,DTHDT,DTHDTF,DTHCAUS,DTHCGR1,ADT,ADY,AVISIT,AVISITN,PARAM,PARAMCD,PARCAT1,PARCAT2,AVAL,AVALC,BASE,CHG,PCHG,ABLFL,ANL01FL,ONTRTFL,QSSEQ,QSTESTCD,QSTEST,QSCAT,QSSCAT,QSORRES,QSORRESU,QSSTRESC,QSSTRESN,QSSTRESU,QSBLFL,QSDRVFL,VISITNUM,VISIT,VISITDY,QSDTC,QSDY
1,CDISCPILOT01,01-701-1015,1015,701,USA,,2014-01-02,2014-07-02,2014-01-02,2014-07-02,2014-07-02T11:45,,,,,,,,,,,,1,NA,2013-12-26,-7,63,YEARS,18-64,F,WHITE,White,HISPANIC OR LATINO,Y,Placebo,Pbo,Placebo,Pbo,Placebo,Placebo,2014-01-02,2014-01-02T00:00:00Z,H,2014-07-02,2014-07-02T23:59:59Z,H,COMPLETED,2014-07-02,,2014-01-02,2014-07-02,182,,,,,2013-12-26,-7,,,Composite Score,QBCSCORE,NEI VFQ-25,Averaged Result,85,,75,10,13.333333333333334,,,,,,,,,,,,,,,,1,SCREENING 1,,,
2,CDISCPILOT01,01-701-1015,1015,701,USA,,2014-01-02,2014-07-02,2014-01-02,2014-07-02,2014-07-02T11:45,,,,,,,,,,,,2,NA,2013-12-26,-7,63,YEARS,18-64,F,WHITE,White,HISPANIC OR LATINO,Y,Placebo,Pbo,Placebo,Pbo,Placebo,Placebo,2014-01-02,2014-01-02T00:00:00Z,H,2014-07-02,2014-07-02T23:59:59Z,H,COMPLETED,2014-07-02,,2014-01-02,2014-07-02,182,,,,,2014-01-02,1,Baseline,0,Composite Score,QBCSCORE,NEI VFQ-25,Averaged Result,75,,75,0,0,Y,,,,,,,,,,,,,,,3,BASELINE,,,
3,CDISCPILOT01,01-701-1015,1015,701,USA,,2014-01-02,2014-07-02,2014-01-02,2014-07-02,2014-07-02T11:45,,,,,,,,,,,,3,NA,2013-12-26,-7,63,YEARS,18-64,F,WHITE,White,HISPANIC OR LATINO,Y,Placebo,Pbo,Placebo,Pbo,Placebo,Placebo,2014-01-02,2014-01-02T00:00:00Z,H,2014-07-02,2014-07-02T23:59:59Z,H,COMPLETED,2014-07-02,,2014-01-02,2014-07-02,182,,,,,2014-01-16,15,Week 2,2,Composite Score,QBCSCORE,NEI VFQ-25,Averaged Result,65,,75,-10,-13.333333333333334,,Y,Y,,,,,,,,,,,,,4,WEEK 2,,,
4,CDISCPILOT01,01-701-1015,1015,701,USA,,2014-01-02,2014-07-02,2014-01-02,2014-07-02,2014-07-02T11:45,,,,,,,,,,,,4,NA,2013-12-26,-7,63,YEARS,18-64,F,WHITE,White,HISPANIC OR LATINO,Y,Placebo,Pbo,Placebo,Pbo,Placebo,Placebo,2014-01-02,2014-01-02T00:00:00Z,H,2014-07-02,2014-07-02T23:59:59Z,H,COMPLETED,2014-07-02,,2014-01-02,2014-07-02,182,,,,,2014-01-30,29,Week 4,4,Composite Score,QBCSCORE,NEI VFQ-25,Averaged Result,100,,75,25,33.33333333333333,,Y,Y,,,,,,,,,,,,,5,WEEK 4,,,
5,CDISCPILOT01,01-701-1015,1015,701,USA,,2014-01-02,2014-07-02,2014-01-02,2014-07-02,2014-07-02T11:45,,,,,,,,,,,,5,NA,2013-12-26,-7,63,YEARS,18-64,F,WHITE,White,HISPANIC OR LATINO,Y,Placebo,Pbo,Placebo,Pbo,Placebo,Placebo,2014-01-02,2014-01-02T00:00:00Z,H,2014-07-02,2014-07-02T23:59:59Z,H,COMPLETED,2014-07-02,,2014-01-02,2014-07-02,182,,,,,2014-02-12,42,Week 6,6,Composite Score,QBCSCORE,NEI VFQ-25,Averaged Result,122.5,,75,47.5,63.33333333333333,,Y,Y,,,,,,,,,,,,,7,WEEK 6,,,
6,CDISCPILOT01,01-701-1015,1015,701,USA,,2014-01-02,2014-07-02,2014-01-02,2014-07-02,2014-07-02T11:45,,,,,,,,,,,,6,NA,2013-12-26,-7,63,YEARS,18-64,F,WHITE,White,HISPANIC OR LATINO,Y,Placebo,Pbo,Placebo,Pbo,Placebo,Placebo,2014-01-02,2014-01-02T00:00:00Z,H,2014-07-02,2014-07-02T23:59:59Z,H,COMPLETED,2014-07-02,,2014-01-02,2014-07-02,182,,,,,2014-03-05,63,Week 8,8,Composite Score,QBCSCORE,NEI VFQ-25,Averaged Result,140,,75,65,86.66666666666667,,Y,Y,,,,,,,,,,,,,8,WEEK 8,,,
7,CDISCPILOT01,01-701-1015,1015,701,USA,,2014-01-02,2014-07-02,2014-01-02,2014-07-02,2014-07-02T11:45,,,,,,,,,,,,7,NA,2013-12-26,-7,63,YEARS,18-64,F,WHITE,White,HISPANIC OR LATINO,Y,Placebo,Pbo,Placebo,Pbo,Placebo,Placebo,2014-01-02,2014-01-02T00:00:00Z,H,2014-07-02,2014-07-02T23:59:59Z,H,COMPLETED,2014-07-02,,2014-01-02,2014-07-02,182,,,,,2014-03-26,84,Week 12,12,Composite Score,QBCSCORE,NEI VFQ-25,Averaged Result,117.5,,75,42.5,56.666666666666664,,Y,Y,,,,,,,,,,,,,9,WEEK 12,,,
8,CDISCPILOT01,01-701-1015,1015,701,USA,,2014-01-02,2014-07-02,2014-01-02,2014-07-02,2014-07-02T11:45,,,,,,,,,,,,8,NA,2013-12-26,-7,63,YEARS,18-64,F,WHITE,White,HISPANIC OR LATINO,Y,Placebo,Pbo,Placebo,Pbo,Placebo,Placebo,2014-01-02,2014-01-02T00:00:00Z,H,2014-07-02,2014-07-02T23:59:59Z,H,COMPLETED,2014-07-02,,2014-01-02,2014-07-02,182,,,,,2014-04-09,98,Week 14 (T),14,Composite Score,QBCSCORE,NEI VFQ-25,Averaged Result,30,,75,-45,-60,,Y,Y,,,,,,,,,,,,,9.1,WEEK 14 (T),,,
9,CDISCPILOT01,01-701-1015,1015,701,USA,,2014-01-02,2014-07-02,2014-01-02,2014-07-02,2014-07-02T11:45,,,,,,,,,,,,9,NA,2013-12-26,-7,63,YEARS,18-64,F,WHITE,White,HISPANIC OR LATINO,Y,Placebo,Pbo,Placebo,Pbo,Placebo,Placebo,2014-01-02,2014-01-02T00:00:00Z,H,2014-07-02,2014-07-02T23:59:59Z,H,COMPLETED,2014-07-02,,2014-01-02,2014-07-02,182,,,,,2014-05-07,126,Week 16,16,Composite Score,QBCSCORE,NEI VFQ-25,Averaged Result,130,,75,55,73.33333333333333,,Y,Y,,,,,,,,,,,,,10,WEEK 16,,,
10,CDISCPILOT01,01-701-1015,1015,701,USA,,2014-01-02,2014-07-02,2014-01-02,2014-07-02,2014-07-02T11:45,,,,,,,,,,,,10,NA,2013-12-26,-7,63,YEARS,18-64,F,WHITE,White,HISPANIC OR LATINO,Y,Placebo,Pbo,Placebo,Pbo,Placebo,Placebo,2014-01-02,2014-01-02T00:00:00Z,H,2014-07-02,2014-07-02T23:59:59Z,H,COMPLETED,2014-07-02,,2014-01-02,2014-07-02,182,,,,,2014-05-21,140,Week 20,20,Composite Score,QBCSCORE,NEI VFQ-25,Averaged Result,105,,75,30,40,,Y,Y,,,,,,,,,,,,,11,WEEK 20,,,
11,CDISCPILOT01,01-701-1015,1015,701,USA,,2014-01-02,2014-07-02,2014-01-02,2014-07-02,2014-07-02T11:45,,,,,,,,,,,,11,NA,2013-12-26,-7,63,YEARS,18-64,F,WHITE,White,HISPANIC OR LATINO,Y,Placebo,Pbo,Placebo,Pbo,Placebo,Placebo,2014-01-02,2014-01-02T00:00:00Z,H,2014-07-02,2014-07-02T23:59:59Z,H,COMPLETED,2014-07-02,,2014-01-02,2014-07-02,182,,,,,2014-06-04,154,Week 22 (T),22,Composite Score,QBCSCORE,NEI VFQ-25,Averaged Result,80,,75,5,6.666666666666667,,Y,Y,,,,,,,,,,,,,11.1,WEEK 22 (T),,,
12,CDISCPILOT01,01-701-1015,1015,701,USA,,2014-01-02,2014-07-02,2014-01-02,2014-07-02,2014-07-02T11:45,,,,,,,,,,,,12,NA,2013-12-26,-7,63,YEARS,18-64,F,WHITE,White,HISPANIC OR LATINO,Y,Placebo,Pbo,Placebo,Pbo,Placebo,Placebo,2014-01-02,2014-01-02T00:00:00Z,H,2014-07-02,2014-07-02T23:59:59Z,H,COMPLETED,2014-07-02,,2014-01-02,2014-07-02,182,,,,,2014-06-18,168,Week 24,24,Composite Score,QBCSCORE,NEI VFQ-25,Averaged Result,75,,75,0,0,,Y,Y,,,,,,,,,,,,,12,WEEK 24,,,
13,CDISCPILOT01,01-701-1015,1015,701,USA,,2014-01-02,2014-07-02,2014-01-02,2014-07-02,2014-07-02T11:45,,,,,,,,,,,,13,NA,2013-12-26,-7,63,YEARS,18-64,F,WHITE,White,HISPANIC OR LATINO,Y,Placebo,Pbo,Placebo,Pbo,Placebo,Placebo,2014-01-02,2014-01-02T00:00:00Z,H,2014-07-02,2014-07-02T23:59:59Z,H,COMPLETED,2014-07-02,,2014-01-02,2014-07-02,182,,,,,2014-07-02,182,Week 26,26,Composite Score,QBCSCORE,NEI VFQ-25,Averaged Result,102.5,,75,27.5,36.666666666666664,,Y,Y,,,,,,,,,,,,,13,WEEK 26,,,
14,CDISCPILOT01,01-701-1015,1015,701,USA,,2014-01-02,2014-07-02,2014-01-02,2014-07-02,2014-07-02T11:45,,,,,,,,,,,,14,NA,2013-12-26,-7,63,YEARS,18-64,F,WHITE,White,HISPANIC OR LATINO,Y,Placebo,Pbo,Placebo,Pbo,Placebo,Placebo,2014-01-02,2014-01-02T00:00:00Z,H,2014-07-02,2014-07-02T23:59:59Z,H,COMPLETED,2014-07-02,,2014-01-02,2014-07-02,182,,,,,2013-12-26,-7,,,Recoded Item - 01,QR01,NEI VFQ-25,General 01,100,,25,75,300,,,,,,,,,,,,,,,,1,SCREENING 1,,,
15,CDISCPILOT01,01-701-1015,1015,701,USA,,2014-01-02,2014-07-02,2014-01-02,2014-07-02,2014-07-02T11:45,,,,,,,,,,,,15,NA,2013-12-26,-7,63,YEARS,18-64,F,WHITE,White,HISPANIC OR LATINO,Y,Placebo,Pbo,Placebo,Pbo,Placebo,Placebo,2014-01-02,2014-01-02T00:00:00Z,H,2014-07-02,2014-07-02T23:59:59Z,H,COMPLETED,2014-07-02,,2014-01-02,2014-07-02,182,,,,,2014-01-02,1,Baseline,0,Recoded Item - 01,QR01,NEI VFQ-25,General 01,25,,25,0,0,Y,,,,,,,,,,,,,,,3,BASELINE,,,
16,CDISCPILOT01,01-701-1015,1015,701,USA,,2014-01-02,2014-07-02,2014-01-02,2014-07-02,2014-07-02T11:45,,,,,,,,,,,,16,NA,2013-12-26,-7,63,YEARS,18-64,F,WHITE,White,HISPANIC OR LATINO,Y,Placebo,Pbo,Placebo,Pbo,Placebo,Placebo,2014-01-02,2014-01-02T00:00:00Z,H,2014-07-02,2014-07-02T23:59:59Z,H,COMPLETED,2014-07-02,,2014-01-02,2014-07-02,182,,,,,2014-01-16,15,Week 2,2,Recoded Item - 01,QR01,NEI VFQ-25,General 01,25,,25,0,0,,Y,Y,,,,,,,,,,,,,4,WEEK 2,,,
17,CDISCPILOT01,01-701-1015,1015,701,USA,,2014-01-02,2014-07-02,2014-01-02,2014-07-02,2014-07-02T11:45,,,,,,,,,,,,17,NA,2013-12-26,-7,63,YEARS,18-64,F,WHITE,White,HISPANIC OR LATINO,Y,Placebo,Pbo,Placebo,Pbo,Placebo,Placebo,2014-01-02,2014-01-02T00:00:00Z,H,2014-07-02,2014-07-02T23:59:59Z,H,COMPLETED,2014-07-02,,2014-01-02,2014-07-02,182,,,,,2014-01-30,29,Week 4,4,Recoded Item - 01,QR01,NEI VFQ-25,General 01,50,,25,25,100,,Y,Y,,,,,,,,,,,,,5,WEEK 4,,,
18,CDISCPILOT01,01-701-1015,1015,701,USA,,2014-01-02,2014-07-02,2014-01-02,2014-07-02,2014-07-02T11:45,,,,,,,,,,,,18,NA,2013-12-26,-7,63,YEARS,18-64,F,WHITE,White,HISPANIC OR LATINO,Y,Placebo,Pbo,Placebo,Pbo,Placebo,Placebo,2014-01-02,2014-01-02T00:00:00Z,H,2014-07-02,2014-07-02T23:59:59Z,H,COMPLETED,2014-07-02,,2014-01-02,2014-07-02,182,,,,,2014-02-12,42,Week 6,6,Recoded Item - 01,QR01,NEI VFQ-25,General 01,75,,25,50,200,,Y,Y,,,,,,,,,,,,,7,WEEK 6,,,
19,CDISCPILOT01,01-701-1015,1015,701,USA,,2014-01-02,2014-07-02,2014-01-02,2014-07-02,2014-07-02T11:45,,,,,,,,,,,,19,NA,2013-12-26,-7,63,YEARS,18-64,F,WHITE,White,HISPANIC OR LATINO,Y,Placebo,Pbo,Placebo,Pbo,Placebo,Placebo,2014-01-02,2014-01-02T00:00:00Z,H,2014-07-02,2014-07-02T23:59:59Z,H,COMPLETED,2014-07-02,,2014-01-02,2014-07-02,182,,,,,2014-03-05,63,Week 8,8,Recoded Item - 01,QR01,NEI VFQ-25,General 01,100,,25,75,300,,Y,Y,,,,,,,,,,,,,8,WEEK 8,,,
20,CDISCPILOT01,01-701-1015,1015,701,USA,,2014-01-02,2014-07-02,2014-01-02,2014-07-02,2014-07-02T11:45,,,,,,,,,,,,20,NA,2013-12-26,-7,63,YEARS,18-64,F,WHITE,White,HISPANIC OR LATINO,Y,Placebo,Pbo,Placebo,Pbo,Placebo,Placebo,2014-01-02,2014-01-02T00:00:00Z,H,2014-07-02,2014-07-02T23:59:59Z,H,COMPLETED,2014-07-02,,2014-01-02,2014-07-02,182,,,,,2014-03-26,84,Week 12,12,Recoded Item - 01,QR01,NEI VFQ-25,General 01,100,,25,75,300,,Y,Y,,,,,,,,,,,,,9,WEEK 12,,,
21,CDISCPILOT01,01-701-1015,1015,701,USA,,2014-01-02,2014-07-02,2014-01-02,2014-07-02,2014-07-02T11:45,,,,,,,,,,,,21,NA,2013-12-26,-7,63,YEARS,18-64,F,WHITE,White,HISPANIC OR LATINO,Y,Placebo,Pbo,Placebo,Pbo,Placebo,Placebo,2014-01-02,2014-01-02T00:00:00Z,H,2014-07-02,2014-07-02T23:59:59Z,H,COMPLETED,2014-07-02,,2014-01-02,2014-07-02,182,,,,,2014-04-09,98,Week 14 (T),14,Recoded Item - 01,QR01,NEI VFQ-25,General 01,0,,25,-25,-100,,Y,Y,,,,,,,,,,,,,9.1,WEEK 14 (T),,,
22,CDISCPILOT01,01-701-1015,1015,701,USA,,2014-01-02,2014-07-02,2014-01-02,2014-07-02,2014-07-02T11:45,,,,,,,,,,,,22,NA,2013-12-26,-7,63,YEARS,18-64,F,WHITE,White,HISPANIC OR LATINO,Y,Placebo,Pbo,Placebo,Pbo,Placebo,Placebo,2014-01-02,2014-01-02T00:00:00Z,H,2014-07-02,2014-07-02T23:59:59Z,H,COMPLETED,2014-07-02,,2014-01-02,2014-07-02,182,,,,,2014-05-07,126,Week 16,16,Recoded Item - 01,QR01,NEI VFQ-25,General 01,100,,25,75,300,,Y,Y,,,,,,,,,,,,,10,WEEK 16,,,
23,CDISCPILOT01,01-701-1015,1015,701,USA,,2014-01-02,2014-07-02,2014-01-02,2014-07-02,2014-07-02T11:45,,,,,,,,,,,,23,NA,2013-12-26,-7,63,YEARS,18-64,F,WHITE,White,HISPANIC OR LATINO,Y,Placebo,Pbo,Placebo,Pbo,Placebo,Placebo,2014-01-02,2014-01-02T00:00:00Z,H,2014-07-02,2014-07-02T23:59:59Z,H,COMPLETED,2014-07-02,,2014-01-02,2014-07-02,182,,,,,2014-05-21,140,Week 20,20,Recoded Item - 01,QR01,NEI VFQ-25,General 01,50,,25,25,100,,Y,Y,,,,,,,,,,,,,11,WEEK 20,,,
24,CDISCPILOT01,01-701-1015,1015,701,USA,,2014-01-02,2014-07-02,2014-01-02,2014-07-02,2014-07-02T11:45,,,,,,,,,,,,24,NA,2013-12-26,-7,63,YEARS,18-64,F,WHITE,White,HISPANIC OR LATINO,Y,Placebo,Pbo,Placebo,Pbo,Placebo,Placebo,2014-01-02,2014-01-02T00:00:00Z,H,2014-07-02,2014-07-02T23:59:59Z,H,COMPLETED,2014-07-02,,2014-01-02,2014-07-02,182,,,,,2014-06-04,154,Week 22 (T),22,Recoded Item - 01,QR01,NEI VFQ-25,General 01,50,,25,25,100,,Y,Y,,,,,,,,,,,,,11.1,WEEK 22 (T),,,
25,CDISCPILOT01,01-701-1015,1015,701,USA,,2014-01-02,2014-07-02,2014-01-02,2014-07-02,2014-07-02T11:45,,,,,,,,,,,,25,NA,2013-12-26,-7,63,YEARS,18-64,F,WHITE,White,HISPANIC OR LATINO,Y,Placebo,Pbo,Placebo,Pbo,Placebo,Placebo,2014-01-02,2014-01-02T00:00:00Z,H,2014-07-02,2014-07-02T23:59:59Z,H,COMPLETED,2014-07-02,,2014-01-02,2014-07-02,182,,,,,2014-06-18,168,Week 24,24,Recoded Item - 01,QR01,NEI VFQ-25,General 01,0,,25,-25,-100,,Y,Y,,,,,,,,,,,,,12,WEEK 24,,,
26,CDISCPILOT01,01-701-1015,1015,701,USA,,2014-01-02,2014-07-02,2014-01-02,2014-07-02,2014-07-02T11:45,,,,,,,,,,,,26,NA,2013-12-26,-7,63,YEARS,18-64,F,WHITE,White,HISPANIC OR LATINO,Y,Placebo,Pbo,Placebo,Pbo,Placebo,Placebo,2014-01-02,2014-01-02T00:00:00Z,H,2014-07-02,2014-07-02T23:59:59Z,H,COMPLETED,2014-07-02,,2014-01-02,2014-07-02,182,,,,,2014-07-02,182,Week 26,26,Recoded Item - 01,QR01,NEI VFQ-25,General 01,0,,25,-25,-100,,Y,Y,,,,,,,,,,,,,13,WEEK 26,,,
27,CDISCPILOT01,01-701-1015,1015,701,USA,,2014-01-02,2014-07-02,2014-01-02,2014-07-02,2014-07-02T11:45,,,,,,,,,,,,27,NA,2013-12-26,-7,63,YEARS,18-64,F,WHITE,White,HISPANIC OR LATINO,Y,Placebo,Pbo,Placebo,Pbo,Placebo,Placebo,2014-01-02,2014-01-02T00:00:00Z,H,2014-07-02,2014-07-02T23:59:59Z,H,COMPLETED,2014-07-02,,2014-01-02,2014-07-02,182,,,,,2013-12-26,-7,,,Recoded Item - 02,QR02,NEI VFQ-25,General 01,20,,100,-80,-80,,,,,,,,,,,,,,,,1,SCREENING 1,,,
28,CDISCPILOT01,01-701-1015,1015,701,USA,,2014-01-02,2014-07-02,2014-01-02,2014-07-02,2014-07-02T11:45,,,,,,,,,,,,28,NA,2013-12-26,-7,63,YEARS,18-64,F,WHITE,White,HISPANIC OR LATINO,Y,Placebo,Pbo,Placebo,Pbo,Placebo,Placebo,2014-01-02,2014-01-02T00:00:00Z,H,2014-07-02,2014-07-02T23:59:59Z,H,COMPLETED,2014-07-02,,2014-01-02,2014-07-02,182,,,,,2014-01-02,1,Baseline,0,Recoded Item - 02,QR02,NEI VFQ-25,General 01,100,,100,0,0,Y,,,,,,,,,,,,,,,3,BASELINE,,,
29,CDISCPILOT01,01-701-1015,1015,701,USA,,2014-01-02,2014-07-02,2014-01-02,2014-07-02,2014-07-02T11:45,,,,,,,,,,,,29,NA,2013-12-26,-7,63,YEARS,18-64,F,WHITE,White,HISPANIC OR LATINO,Y,Placebo,Pbo,Placebo,Pbo,Placebo,Placebo,2014-01-02,2014-01-02T00:00:00Z,H,2014-07-02,2014-07-02T23:59:59Z,H,COMPLETED,2014-07-02,,2014-01-02,2014-07-02,182,,,,,2014-01-16,15,Week 2,2,Recoded Item - 02,QR02,NEI VFQ-25,General 01,80,,100,-20,-20,,Y,Y,,,,,,,,,,,,,4,WEEK 2,,,
30,CDISCPILOT01,01-701-1015,1015,701,USA,,2014-01-02,2014-07-02,2014-01-02,2014-07-02,2014-07-02T11:45,,,,,,,,,,,,30,NA,2013-12-26,-7,63,YEARS,18-64,F,WHITE,White,HISPANIC OR LATINO,Y,Placebo,Pbo,Placebo,Pbo,Placebo,Placebo,2014-01-02,2014-01-02T00:00:00Z,H,2014-07-02,2014-07-02T23:59:59Z,H,COMPLETED,2014-07-02,,2014-01-02,2014-07-02,182,,,,,2014-01-30,29,Week 4,4,Recoded Item - 02,QR02,NEI VFQ-25,General 01,100,,100,0,0,,Y,Y,,,,,,,,,,,,,5,WEEK 4,,,
31,CDISCPILOT01,01-701-1015,1015,701,USA,,2014-01-02,2014-07-02,2014-01-02,2014-07-02,2014-07-02T11:45,,,,,,,,,,,,31,NA,2013-12-26,-7,63,YEARS,18-64,F,WHITE,White,HISPANIC OR LATINO,Y,Placebo,Pbo,Placebo,Pbo,Placebo,Placebo,2014-01-02,2014-01-02T00:00:00Z,H,2014-07-02,2014-07-02T23:59:59Z,H,COMPLETED,2014-07-02,,2014-01-02,2014-07-02,182,,,,,2014-02-12,42,Week 6,6,Recoded Item - 02,QR02,NEI VFQ-25,General 01,20,,100,-80,-80,,Y,Y,,,,,,,,,,,,,7,WEEK 6,,,
32,CDISCPILOT01,01-701-1015,1015,701,USA,,2014-01-02,2014-07-02,2014-01-02,2014-07-02,2014-07-02T11:45,,,,,,,,,,,,32,NA,2013-12-26,-7,63,YEARS,18-64,F,WHITE,White,HISPANIC OR LATINO,Y,Placebo,Pbo,Placebo,Pbo,Placebo,Placebo,2014-01-02,2014-01-02T00:00:00Z,H,2014-07-02,2014-07-02T23:59:59Z,H,COMPLETED,2014-07-02,,2014-01-02,2014-07-02,182,,,,,2014-03-05,63,Week 8,8,Recoded Item - 02,QR02,NEI VFQ-25,General 01,80,,100,-20,-20,,Y,Y,,,,,,,,,,,,,8,WEEK 8,,,
33,CDISCPILOT01,01-701-1015,1015,701,USA,,2014-01-02,2014-07-02,2014-01-02,2014-07-02,2014-07-02T11:45,,,,,,,,,,,,33,NA,2013-12-26,-7,63,YEARS,18-64,F,WHITE,White,HISPANIC OR LATINO,Y,Placebo,Pbo,Placebo,Pbo,Placebo,Placebo,2014-01-02,2014-01-02T00:00:00Z,H,2014-07-02,2014-07-02T23:59:59Z,H,COMPLETED,2014-07-02,,2014-01-02,2014-07-02,182,,,,,2014-03-26,84,Week 12,12,Recoded Item - 02,QR02,NEI VFQ-25,General 01,60,,100,-40,-40,,Y,Y,,,,,,,,,,,,,9,WEEK 12,,,
34,CDISCPILOT01,01-701-1015,1015,701,USA,,2014-01-02,2014-07-02,2014-01-02,2014-07-02,2014-07-02T11:45,,,,,,,,,,,,34,NA,2013-12-26,-7,63,YEARS,18-64,F,WHITE,White,HISPANIC OR LATINO,Y,Placebo,Pbo,Placebo,Pbo,Placebo,Placebo,2014-01-02,2014-01-02T00:00:00Z,H,2014-07-02,2014-07-02T23:59:59Z,H,COMPLETED,2014-07-02,,2014-01-02,2014-07-02,182,,,,,2014-04-09,98,Week 14 (T),14,Recoded Item - 02,QR02,NEI VFQ-25,General 01,60,,100,-40,-40,,Y,Y,,,,,,,,,,,,,9.1,WEEK 14 (T),,,
35,CDISCPILOT01,01-701-1015,1015,701,USA,,2014-01-02,2014-07-02,2014-01-02,2014-07-02,2014-07-02T11:45,,,,,,,,,,,,35,NA,2013-12-26,-7,63,YEARS,18-64,F,WHITE,White,HISPANIC OR LATINO,Y,Placebo,Pbo,Placebo,Pbo,Placebo,Placebo,2014-01-02,2014-01-02T00:00:00Z,H,2014-07-02,2014-07-02T23:59:59Z,H,COMPLETED,2014-07-02,,2014-01-02,2014-07-02,182,,,,,2014-05-07,126,Week 16,16,Recoded Item - 02,QR02,NEI VFQ-25,General 01,60,,100,-40,-40,,Y,Y,,,,,,,,,,,,,10,WEEK 16,,,
36,CDISCPILOT01,01-701-1015,1015,701,USA,,2014-01-02,2014-07-02,2014-01-02,2014-07-02,2014-07-02T11:45,,,,,,,,,,,,36,NA,2013-12-26,-7,63,YEARS,18-64,F,WHITE,White,HISPANIC OR LATINO,Y,Placebo,Pbo,Placebo,Pbo,Placebo,Placebo,2014-01-02,2014-01-02T00:00:00Z,H,2014-07-02,2014-07-02T23:59:59Z,H,COMPLETED,2014-07-02,,2014-01-02,2014-07-02,182,,,,,2014-05-21,140,Week 20,20,Recoded Item - 02,QR02,NEI VFQ-25,General 01,60,,100,-40,-40,,Y,Y,,,,,,,,,,,,,11,WEEK 20,,,
37,CDISCPILOT01,01-701-1015,1015,701,USA,,2014-01-02,2014-07-02,2014-01-02,2014-07-02,2014-07-02T11:45,,,,,,,,,,,,37,NA,2013-12-26,-7,63,YEARS,18-64,F,WHITE,White,HISPANIC OR LATINO,Y,Placebo,Pbo,Placebo,Pbo,Placebo,Placebo,2014-01-02,2014-01-02T00:00:00Z,H,2014-07-02,2014-07-02T23:59:59Z,H,COMPLETED,2014-07-02,,2014-01-02,2014-07-02,182,,,,,2014-06-04,154,Week 22 (T),22,Recoded Item - 02,QR02,NEI VFQ-25,General 01,60,,100,-40,-40,,Y,Y,,,,,,,,,,,,,11.1,WEEK 22 (T),,,
38,CDISCPILOT01,01-701-1015,1015,701,USA,,2014-01-02,2014-07-02,2014-01-02,2014-07-02,2014-07-02T11:45,,,,,,,,,,,,38,NA,2013-12-26,-7,63,YEARS,18-64,F,WHITE,White,HISPANIC OR LATINO,Y,Placebo,Pbo,Placebo,Pbo,Placebo,Placebo,2014-01-02,2014-01-02T00:00:00Z,H,2014-07-02,2014-07-02T23:59:59Z,H,COMPLETED,2014-07-02,,2014-01-02,2014-07-02,182,,,,,2014-06-18,168,Week 24,24,Recoded Item - 02,QR02,NEI VFQ-25,General 01,100,,100,0,0,,Y,Y,,,,,,,,,,,,,12,WEEK 24,,,
39,CDISCPILOT01,01-701-1015,1015,701,USA,,2014-01-02,2014-07-02,2014-01-02,2014-07-02,2014-07-02T11:45,,,,,,,,,,,,39,NA,2013-12-26,-7,63,YEARS,18-64,F,WHITE,White,HISPANIC OR LATINO,Y,Placebo,Pbo,Placebo,Pbo,Placebo,Placebo,2014-01-02,2014-01-02T00:00:00Z,H,2014-07-02,2014-07-02T23:59:59Z,H,COMPLETED,2014-07-02,,2014-01-02,2014-07-02,182,,,,,2014-07-02,182,Week 26,26,Recoded Item - 02,QR02,NEI VFQ-25,General 01,80,,100,-20,-20,,Y,Y,,,,,,,,,,,,,13,WEEK 26,,,
40,CDISCPILOT01,01-701-1015,1015,701,USA,,2014-01-02,2014-07-02,2014-01-02,2014-07-02,2014-07-02T11:45,,,,,,,,,,,,40,NA,2013-12-26,-7,63,YEARS,18-64,F,WHITE,White,HISPANIC OR LATINO,Y,Placebo,Pbo,Placebo,Pbo,Placebo,Placebo,2014-01-02,2014-01-02T00:00:00Z,H,2014-07-02,2014-07-02T23:59:59Z,H,COMPLETED,2014-07-02,,2014-01-02,2014-07-02,182,,,,,2013-12-26,-7,,,Recoded Item - 03,QR03,NEI VFQ-25,General 02,25,,25,0,0,,,,,,,,,,,,,,,,1,SCREENING 1,,,
41,CDISCPILOT01,01-701-1015,1015,701,USA,,2014-01-02,2014-07-02,2014-01-02,2014-07-02,2014-07-02T11:45,,,,,,,,,,,,41,NA,2013-12-26,-7,63,YEARS,18-64,F,WHITE,White,HISPANIC OR LATINO,Y,Placebo,Pbo,Placebo,Pbo,Placebo,Placebo,2014-01-02,2014-01-02T00:00:00Z,H,2014-07-02,2014-07-02T23:59:59Z,H,COMPLETED,2014-07-02,,2014-01-02,2014-07-02,182,,,,,2014-01-02,1,Baseline,0,Recoded Item - 03,QR03,NEI VFQ-25,General 02,25,,25,0,0,Y,,,,,,,,,,,,,,,3,BASELINE,,,
42,CDISCPILOT01,01-701-1015,1015,701,USA,,2014-01-02,2014-07-02,2014-01-02,2014-07-02,2014-07-02T11:45,,,,,,,,,,,,42,NA,2013-12-26,-7,63,YEARS,18-64,F,WHITE,White,HISPANIC OR LATINO,Y,Placebo,Pbo,Placebo,Pbo,Placebo,Placebo,2014-01-02,2014-01-02T00:00:00Z,H,2014-07-02,2014-07-02T23:59:59Z,H,COMPLETED,2014-07-02,,2014-01-02,2014-07-02,182,,,,,2014-01-16,15,Week 2,2,Recoded Item - 03,QR03,NEI VFQ-25,General 02,0,,25,-25,-100,,Y,Y,,,,,,,,,,,,,4,WEEK 2,,,
43,CDISCPILOT01,01-701-1015,1015,701,USA,,2014-01-02,2014-07-02,2014-01-02,2014-07-02,2014-07-02T11:45,,,,,,,,,,,,43,NA,2013-12-26,-7,63,YEARS,18-64,F,WHITE,White,HISPANIC OR LATINO,Y,Placebo,Pbo,Placebo,Pbo,Placebo,Placebo,2014-01-02,2014-01-02T00:00:00Z,H,2014-07-02,2014-07-02T23:59:59Z,H,COMPLETED,2014-07-02,,2014-01-02,2014-07-02,182,,,,,2014-01-30,29,Week 4,4,Recoded Item - 03,QR03,NEI VFQ-25,General 02,25,,25,0,0,,Y,Y,,,,,,,,,,,,,5,WEEK 4,,,
44,CDISCPILOT01,01-701-1015,1015,701,USA,,2014-01-02,2014-07-02,2014-01-02,2014-07-02,2014-07-02T11:45,,,,,,,,,,,,44,NA,2013-12-26,-7,63,YEARS,18-64,F,WHITE,White,HISPANIC OR LATINO,Y,Placebo,Pbo,Placebo,Pbo,Placebo,Placebo,2014-01-02,2014-01-02T00:00:00Z,H,2014-07-02,2014-07-02T23:59:59Z,H,COMPLETED,2014-07-02,,2014-01-02,2014-07-02,182,,,,,2014-02-12,42,Week 6,6,Recoded Item - 03,QR03,NEI VFQ-25,General 02,75,,25,50,200,,Y,Y,,,,,,,,,,,,,7,WEEK 6,,,
45,CDISCPILOT01,01-701-1015,1015,701,USA,,2014-01-02,2014-07-02,2014-01-02,2014-07-02,2014-07-02T11:45,,,,,,,,,,,,45,NA,2013-12-26,-7,63,YEARS,18-64,F,WHITE,White,HISPANIC OR LATINO,Y,Placebo,Pbo,Placebo,Pbo,Placebo,Placebo,2014-01-02,2014-01-02T00:00:00Z,H,2014-07-02,2014-07-02T23:59:59Z,H,COMPLETED,2014-07-02,,2014-01-02,2014-07-02,182,,,,,2014-03-05,63,Week 8,8,Recoded Item - 03,QR03,NEI VFQ-25,General 02,25,,25,0,0,,Y,Y,,,,,,,,,,,,,8,WEEK 8,,,
46,CDISCPILOT01,01-701-1015,1015,701,USA,,2014-01-02,2014-07-02,2014-01-02,2014-07-02,2014-07-02T11:45,,,,,,,,,,,,46,NA,2013-12-26,-7,63,YEARS,18-64,F,WHITE,White,HISPANIC OR LATINO,Y,Placebo,Pbo,Placebo,Pbo,Placebo,Placebo,2014-01-02,2014-01-02T00:00:00Z,H,2014-07-02,2014-07-02T23:59:59Z,H,COMPLETED,2014-07-02,,2014-01-02,2014-07-02,182,,,,,2014-03-26,84,Week 12,12,Recoded Item - 03,QR03,NEI VFQ-25,General 02,0,,25,-25,-100,,Y,Y,,,,,,,,,,,,,9,WEEK 12,,,
47,CDISCPILOT01,01-701-1015,1015,701,USA,,2014-01-02,2014-07-02,2014-01-02,2014-07-02,2014-07-02T11:45,,,,,,,,,,,,47,NA,2013-12-26,-7,63,YEARS,18-64,F,WHITE,White,HISPANIC OR LATINO,Y,Placebo,Pbo,Placebo,Pbo,Placebo,Placebo,2014-01-02,2014-01-02T00:00:00Z,H,2014-07-02,2014-07-02T23:59:59Z,H,COMPLETED,2014-07-02,,2014-01-02,2014-07-02,182,,,,,2014-04-09,98,Week 14 (T),14,Recoded Item - 03,QR03,NEI VFQ-25,General 02,0,,25,-25,-100,,Y,Y,,,,,,,,,,,,,9.1,WEEK 14 (T),,,
48,CDISCPILOT01,01-701-1015,1015,701,USA,,2014-01-02,2014-07-02,2014-01-02,2014-07-02,2014-07-02T11:45,,,,,,,,,,,,48,NA,2013-12-26,-7,63,YEARS,18-64,F,WHITE,White,HISPANIC OR LATINO,Y,Placebo,Pbo,Placebo,Pbo,Placebo,Placebo,2014-01-02,2014-01-02T00:00:00Z,H,2014-07-02,2014-07-02T23:59:59Z,H,COMPLETED,2014-07-02,,2014-01-02,2014-07-02,182,,,,,2014-05-07,126,Week 16,16,Recoded Item - 03,QR03,NEI VFQ-25,General 02,75,,25,50,200,,Y,Y,,,,,,,,,,,,,10,WEEK 16,,,
49,CDISCPILOT01,01-701-1015,1015,701,USA,,2014-01-02,2014-07-02,2014-01-02,2014-07-02,2014-07-02T11:45,,,,,,,,,,,,49,NA,2013-12-26,-7,63,YEARS,18-64,F,WHITE,White,HISPANIC OR LATINO,Y,Placebo,Pbo,Placebo,Pbo,Placebo,Placebo,2014-01-02,2014-01-02T00:00:00Z,H,2014-07-02,2014-07-02T23:59:59Z,H,COMPLETED,2014-07-02,,2014-01-02,2014-07-02,182,,,,,2014-05-21,140,Week 20,20,Recoded Item - 03,QR03,NEI VFQ-25,General 02,75,,25,50,200,,Y,Y,,,,,,,,,,,,,11,WEEK 20,,,
50,CDISCPILOT01,01-701-1015,1015,701,USA,,2014-01-02,2014-07-02,2014-01-02,2014-07-02,2014-07-02T11:45,,,,,,,,,,,,50,NA,2013-12-26,-7,63,YEARS,18-64,F,WHITE,White,HISPANIC OR LATINO,Y,Placebo,Pbo,Placebo,Pbo,Placebo,Placebo,2014-01-02,2014-01-02T00:00:00Z,H,2014-07-02,2014-07-02T23:59:59Z,H,COMPLETED,2014-07-02,,2014-01-02,2014-07-02,182,,,,,2014-06-04,154,Week 22 (T),22,Recoded Item - 03,QR03,NEI VFQ-25,General 02,0,,25,-25,-100,,Y,Y,,,,,,,,,,,,,11.1,WEEK 22 (T),,,
51,CDISCPILOT01,01-701-1015,1015,701,USA,,2014-01-02,2014-07-02,2014-01-02,2014-07-02,2014-07-02T11:45,,,,,,,,,,,,51,NA,2013-12-26,-7,63,YEARS,18-64,F,WHITE,White,HISPANIC OR LATINO,Y,Placebo,Pbo,Placebo,Pbo,Placebo,Placebo,2014-01-02,2014-01-02T00:00:00Z,H,2014-07-02,2014-07-02T23:59:59Z,H,COMPLETED,2014-07-02,,2014-01-02,2014-07-02,182,,,,,2014-06-18,168,Week 24,24,Recoded Item - 03,QR03,NEI VFQ-25,General 02,0,,25,-25,-100,,Y,Y,,,,,,,,,,,,,12,WEEK 24,,,
52,CDISCPILOT01,01-701-1015,1015,701,USA,,2014-01-02,2014-07-02,2014-01-02,2014-07-02,2014-07-02T11:45,,,,,,,,,,,,52,NA,2013-12-26,-7,63,YEARS,18-64,F,WHITE,White,HISPANIC OR LATINO,Y,Placebo,Pbo,Placebo,Pbo,Placebo,Placebo,2014-01-02,2014-01-02T00:00:00Z,H,2014-07-02,2014-07-02T23:59:59Z,H,COMPLETED,2014-07-02,,2014-01-02,2014-07-02,182,,,,,2014-07-02,182,Week 26,26,Recoded Item - 03,QR03,NEI VFQ-25,General 02,50,,25,25,100,,Y,Y,,,,,,,,,,,,,13,WEEK 26,,,
53,CDISCPILOT01,01-701-1015,1015,701,USA,,2014-01-02,2014-07-02,2014-01-02,2014-07-02,2014-07-02T11:45,,,,,,,,,,,,53,NA,2013-12-26,-7,63,YEARS,18-64,F,WHITE,White,HISPANIC OR LATINO,Y,Placebo,Pbo,Placebo,Pbo,Placebo,Placebo,2014-01-02,2014-01-02T00:00:00Z,H,2014-07-02,2014-07-02T23:59:59Z,H,COMPLETED,2014-07-02,,2014-01-02,2014-07-02,182,,,,,2013-12-26,-7,,,Recoded Item - 04,QR04,NEI VFQ-25,General 02,25,,0,25,,,,,,,,,,,,,,,,,1,SCREENING 1,,,
54,CDISCPILOT01,01-701-1015,1015,701,USA,,2014-01-02,2014-07-02,2014-01-02,2014-07-02,2014-07-02T11:45,,,,,,,,,,,,54,NA,2013-12-26,-7,63,YEARS,18-64,F,WHITE,White,HISPANIC OR LATINO,Y,Placebo,Pbo,Placebo,Pbo,Placebo,Placebo,2014-01-02,2014-01-02T00:00:00Z,H,2014-07-02,2014-07-02T23:59:59Z,H,COMPLETED,2014-07-02,,2014-01-02,2014-07-02,182,,,,,2014-01-02,1,Baseline,0,Recoded Item - 04,QR04,NEI VFQ-25,General 02,0,,0,0,,Y,,,,,,,,,,,,,,,3,BASELINE,,,
55,CDISCPILOT01,01-701-1015,1015,701,USA,,2014-01-02,2014-07-02,2014-01-02,2014-07-02,2014-07-02T11:45,,,,,,,,,,,,55,NA,2013-12-26,-7,63,YEARS,18-64,F,WHITE,White,HISPANIC OR LATINO,Y,Placebo,Pbo,Placebo,Pbo,Placebo,Placebo,2014-01-02,2014-01-02T00:00:00Z,H,2014-07-02,2014-07-02T23:59:59Z,H,COMPLETED,2014-07-02,,2014-01-02,2014-07-02,182,,,,,2014-01-16,15,Week 2,2,Recoded Item - 04,QR04,NEI VFQ-25,General 02,25,,0,25,,,Y,Y,,,,,,,,,,,,,4,WEEK 2,,,
56,CDISCPILOT01,01-701-1015,1015,701,USA,,2014-01-02,2014-07-02,2014-01-02,2014-07-02,2014-07-02T11:45,,,,,,,,,,,,56,NA,2013-12-26,-7,63,YEARS,18-64,F,WHITE,White,HISPANIC OR LATINO,Y,Placebo,Pbo,Placebo,Pbo,Placebo,Placebo,2014-01-02,2014-01-02T00:00:00Z,H,2014-07-02,2014-07-02T23:59:59Z,H,COMPLETED,2014-07-02,,2014-01-02,2014-07-02,182,,,,,2014-01-30,29,Week 4,4,Recoded Item - 04,QR04,NEI VFQ-25,General 02,25,,0,25,,,Y,Y,,,,,,,,,,,,,5,WEEK 4,,,
57,CDISCPILOT01,01-701-1015,1015,701,USA,,2014-01-02,2014-07-02,2014-01-02,2014-07-02,2014-07-02T11:45,,,,,,,,,,,,57,NA,2013-12-26,-7,63,YEARS,18-64,F,WHITE,White,HISPANIC OR LATINO,Y,Placebo,Pbo,Placebo,Pbo,Placebo,Placebo,2014-01-02,2014-01-02T00:00:00Z,H,2014-07-02,2014-07-02T23:59:59Z,H,COMPLETED,2014-07-02,,2014-01-02,2014-07-02,182,,,,,2014-02-12,42,Week 6,6,Recoded Item - 04,QR04,NEI VFQ-25,General 02,75,,0,75,,,Y,Y,,,,,,,,,,,,,7,WEEK 6,,,
58,CDISCPILOT01,01-701-1015,1015,701,USA,,2014-01-02,2014-07-02,2014-01-02,2014-07-02,2014-07-02T11:45,,,,,,,,,,,,58,NA,2013-12-26,-7,63,YEARS,18-64,F,WHITE,White,HISPANIC OR LATINO,Y,Placebo,Pbo,Placebo,Pbo,Placebo,Placebo,2014-01-02,2014-01-02T00:00:00Z,H,2014-07-02,2014-07-02T23:59:59Z,H,COMPLETED,2014-07-02,,2014-01-02,2014-07-02,182,,,,,2014-03-05,63,Week 8,8,Recoded Item - 04,QR04,NEI VFQ-25,General 02,75,,0,75,,,Y,Y,,,,,,,,,,,,,8,WEEK 8,,,
59,CDISCPILOT01,01-701-1015,1015,701,USA,,2014-01-02,2014-07-02,2014-01-02,2014-07-02,2014-07-02T11:45,,,,,,,,,,,,59,NA,2013-12-26,-7,63,YEARS,18-64,F,WHITE,White,HISPANIC OR LATINO,Y,Placebo,Pbo,Placebo,Pbo,Placebo,Placebo,2014-01-02,2014-01-02T00:00:00Z,H,2014-07-02,2014-07-02T23:59:59Z,H,COMPLETED,2014-07-02,,2014-01-02,2014-07-02,182,,,,,2014-03-26,84,Week 12,12,Recoded Item - 04,QR04,NEI VFQ-25,General 02,75,,0,75,,,Y,Y,,,,,,,,,,,,,9,WEEK 12,,,
60,CDISCPILOT01,01-701-1015,1015,701,USA,,2014-01-02,2014-07-02,2014-01-02,2014-07-02,2014-07-02T11:45,,,,,,,,,,,,60,NA,2013-12-26,-7,63,YEARS,18-64,F,WHITE,White,HISPANIC OR LATINO,Y,Placebo,Pbo,Placebo,Pbo,Placebo,Placebo,2014-01-02,2014-01-02T00:00:00Z,H,2014-07-02,2014-07-02T23:59:59Z,H,COMPLETED,2014-07-02,,2014-01-02,2014-07-02,182,,,,,2014-04-09,98,Week 14 (T),14,Recoded Item - 04,QR04,NEI VFQ-25,General 02,0,,0,0,,,Y,Y,,,,,,,,,,,,,9.1,WEEK 14 (T),,,
61,CDISCPILOT01,01-701-1015,1015,701,USA,,2014-01-02,2014-07-02,2014-01-02,2014-07-02,2014-07-02T11:45,,,,,,,,,,,,61,NA,2013-12-26,-7,63,YEARS,18-64,F,WHITE,White,HISPANIC OR LATINO,Y,Placebo,Pbo,Placebo,Pbo,Placebo,Placebo,2014-01-02,2014-01-02T00:00:00Z,H,2014-07-02,2014-07-02T23:59:59Z,H,COMPLETED,2014-07-02,,2014-01-02,2014-07-02,182,,,,,2014-05-07,126,Week 16,16,Recoded Item - 04,QR04,NEI VFQ-25,General 02,25,,0,25,,,Y,Y,,,,,,,,,,,,,10,WEEK 16,,,
62,CDISCPILOT01,01-701-1015,1015,701,USA,,2014-01-02,2014-07-02,2014-01-02,2014-07-02,2014-07-02T11:45,,,,,,,,,,,,62,NA,2013-12-26,-7,63,YEARS,18-64,F,WHITE,White,HISPANIC OR LATINO,Y,Placebo,Pbo,Placebo,Pbo,Placebo,Placebo,2014-01-02,2014-01-02T00:00:00Z,H,2014-07-02,2014-07-02T23:59:59Z,H,COMPLETED,2014-07-02,,2014-01-02,2014-07-02,182,,,,,2014-05-21,140,Week 20,20,Recoded Item - 04,QR04,NEI VFQ-25,General 02,25,,0,25,,,Y,Y,,,,,,,,,,,,,11,WEEK 20,,,
63,CDISCPILOT01,01-701-1015,1015,701,USA,,2014-01-02,2014-07-02,2014-01-02,2014-07-02,2014-07-02T11:45,,,,,,,,,,,,63,NA,2013-12-26,-7,63,YEARS,18-64,F,WHITE,White,HISPANIC OR LATINO,Y,Placebo,Pbo,Placebo,Pbo,Placebo,Placebo,2014-01-02,2014-01-02T00:00:00Z,H,2014-07-02,2014-07-02T23:59:59Z,H,COMPLETED,2014-07-02,,2014-01-02,2014-07-02,182,,,,,2014-06-04,154,Week 22 (T),22,Recoded Item - 04,QR04,NEI VFQ-25,General 02,50,,0,50,,,Y,Y,,,,,,,,,,,,,11.1,WEEK 22 (T),,,
64,CDISCPILOT01,01-701-1015,1015,701,USA,,2014-01-02,2014-07-02,2014-01-02,2014-07-02,2014-07-02T11:45,,,,,,,,,,,,64,NA,2013-12-26,-7,63,YEARS,18-64,F,WHITE,White,HISPANIC OR LATINO,Y,Placebo,Pbo,Placebo,Pbo,Placebo,Placebo,2014-01-02,2014-01-02T00:00:00Z,H,2014-07-02,2014-07-02T23:59:59Z,H,COMPLETED,2014-07-02,,2014-01-02,2014-07-02,182,,,,,2014-06-18,168,Week 24,24,Recoded Item - 04,QR04,NEI VFQ-25,General 02,50,,0,50,,,Y,Y,,,,,,,,,,,,,12,WEEK 24,,,
65,CDISCPILOT01,01-701-1015,1015,701,USA,,2014-01-02,2014-07-02,2014-01-02,2014-07-02,2014-07-02T11:45,,,,,,,,,,,,65,NA,2013-12-26,-7,63,YEARS,18-64,F,WHITE,White,HISPANIC OR LATINO,Y,Placebo,Pbo,Placebo,Pbo,Placebo,Placebo,2014-01-02,2014-01-02T00:00:00Z,H,2014-07-02,2014-07-02T23:59:59Z,H,COMPLETED,2014-07-02,,2014-01-02,2014-07-02,182,,,,,2014-07-02,182,Week 26,26,Recoded Item - 04,QR04,NEI VFQ-25,General 02,75,,0,75,,,Y,Y,,,,,,,,,,,,,13,WEEK 26,,,
66,CDISCPILOT01,01-701-1015,1015,701,USA,,2014-01-02,2014-07-02,2014-01-02,2014-07-02,2014-07-02T11:45,,,,,,,,,,,,66,NA,2013-12-26,-7,63,YEARS,18-64,F,WHITE,White,HISPANIC OR LATINO,Y,Placebo,Pbo,Placebo,Pbo,Placebo,Placebo,2014-01-02,2014-01-02T00:00:00Z,H,2014-07-02,2014-07-02T23:59:59Z,H,COMPLETED,2014-07-02,,2014-01-02,2014-07-02,182,,,,,2013-12-26,-7,,,General Score 01,QSG01,NEI VFQ-25,Averaged Result,60,,62.5,-2.5,-4,,,,,,,,,,,,,,,,1,SCREENING 1,,,
67,CDISCPILOT01,01-701-1015,1015,701,USA,,2014-01-02,2014-07-02,2014-01-02,2014-07-02,2014-07-02T11:45,,,,,,,,,,,,67,NA,2013-12-26,-7,63,YEARS,18-64,F,WHITE,White,HISPANIC OR LATINO,Y,Placebo,Pbo,Placebo,Pbo,Placebo,Placebo,2014-01-02,2014-01-02T00:00:00Z,H,2014-07-02,2014-07-02T23:59:59Z,H,COMPLETED,2014-07-02,,2014-01-02,2014-07-02,182,,,,,2014-01-02,1,Baseline,0,General Score 01,QSG01,NEI VFQ-25,Averaged Result,62.5,,62.5,0,0,Y,,,,,,,,,,,,,,,3,BASELINE,,,
68,CDISCPILOT01,01-701-1015,1015,701,USA,,2014-01-02,2014-07-02,2014-01-02,2014-07-02,2014-07-02T11:45,,,,,,,,,,,,68,NA,2013-12-26,-7,63,YEARS,18-64,F,WHITE,White,HISPANIC OR LATINO,Y,Placebo,Pbo,Placebo,Pbo,Placebo,Placebo,2014-01-02,2014-01-02T00:00:00Z,H,2014-07-02,2014-07-02T23:59:59Z,H,COMPLETED,2014-07-02,,2014-01-02,2014-07-02,182,,,,,2014-01-16,15,Week 2,2,General Score 01,QSG01,NEI VFQ-25,Averaged Result,52.5,,62.5,-10,-16,,Y,Y,,,,,,,,,,,,,4,WEEK 2,,,
69,CDISCPILOT01,01-701-1015,1015,701,USA,,2014-01-02,2014-07-02,2014-01-02,2014-07-02,2014-07-02T11:45,,,,,,,,,,,,69,NA,2013-12-26,-7,63,YEARS,18-64,F,WHITE,White,HISPANIC OR LATINO,Y,Placebo,Pbo,Placebo,Pbo,Placebo,Placebo,2014-01-02,2014-01-02T00:00:00Z,H,2014-07-02,2014-07-02T23:59:59Z,H,COMPLETED,2014-07-02,,2014-01-02,2014-07-02,182,,,,,2014-01-30,29,Week 4,4,General Score 01,QSG01,NEI VFQ-25,Averaged Result,75,,62.5,12.5,20,,Y,Y,,,,,,,,,,,,,5,WEEK 4,,,
70,CDISCPILOT01,01-701-1015,1015,701,USA,,2014-01-02,2014-07-02,2014-01-02,2014-07-02,2014-07-02T11:45,,,,,,,,,,,,70,NA,2013-12-26,-7,63,YEARS,18-64,F,WHITE,White,HISPANIC OR LATINO,Y,Placebo,Pbo,Placebo,Pbo,Placebo,Placebo,2014-01-02,2014-01-02T00:00:00Z,H,2014-07-02,2014-07-02T23:59:59Z,H,COMPLETED,2014-07-02,,2014-01-02,2014-07-02,182,,,,,2014-02-12,42,Week 6,6,General Score 01,QSG01,NEI VFQ-25,Averaged Result,47.5,,62.5,-15,-24,,Y,Y,,,,,,,,,,,,,7,WEEK 6,,,
71,CDISCPILOT01,01-701-1015,1015,701,USA,,2014-01-02,2014-07-02,2014-01-02,2014-07-02,2014-07-02T11:45,,,,,,,,,,,,71,NA,2013-12-26,-7,63,YEARS,18-64,F,WHITE,White,HISPANIC OR LATINO,Y,Placebo,Pbo,Placebo,Pbo,Placebo,Placebo,2014-01-02,2014-01-02T00:00:00Z,H,2014-07-02,2014-07-02T23:59:59Z,H,COMPLETED,2014-07-02,,2014-01-02,2014-07-02,182,,,,,2014-03-05,63,Week 8,8,General Score 01,QSG01,NEI VFQ-25,Averaged Result,90,,62.5,27.5,44,,Y,Y,,,,,,,,,,,,,8,WEEK 8,,,
72,CDISCPILOT01,01-701-1015,1015,701,USA,,2014-01-02,2014-07-02,2014-01-02,2014-07-02,2014-07-02T11:45,,,,,,,,,,,,72,NA,2013-12-26,-7,63,YEARS,18-64,F,WHITE,White,HISPANIC OR LATINO,Y,Placebo,Pbo,Placebo,Pbo,Placebo,Placebo,2014-01-02,2014-01-02T00:00:00Z,H,2014-07-02,2014-07-02T23:59:59Z,H,COMPLETED,2014-07-02,,2014-01-02,2014-07-02,182,,,,,2014-03-26,84,Week 12,12,General Score 01,QSG01,NEI VFQ-25,Averaged Result,80,,62.5,17.5,28.000000000000004,,Y,Y,,,,,,,,,,,,,9,WEEK 12,,,
73,CDISCPILOT01,01-701-1015,1015,701,USA,,2014-01-02,2014-07-02,2014-01-02,2014-07-02,2014-07-02T11:45,,,,,,,,,,,,73,NA,2013-12-26,-7,63,YEARS,18-64,F,WHITE,White,HISPANIC OR LATINO,Y,Placebo,Pbo,Placebo,Pbo,Placebo,Placebo,2014-01-02,2014-01-02T00:00:00Z,H,2014-07-02,2014-07-02T23:59:59Z,H,COMPLETED,2014-07-02,,2014-01-02,2014-07-02,182,,,,,2014-04-09,98,Week 14 (T),14,General Score 01,QSG01,NEI VFQ-25,Averaged Result,30,,62.5,-32.5,-52,,Y,Y,,,,,,,,,,,,,9.1,WEEK 14 (T),,,
74,CDISCPILOT01,01-701-1015,1015,701,USA,,2014-01-02,2014-07-02,2014-01-02,2014-07-02,2014-07-02T11:45,,,,,,,,,,,,74,NA,2013-12-26,-7,63,YEARS,18-64,F,WHITE,White,HISPANIC OR LATINO,Y,Placebo,Pbo,Placebo,Pbo,Placebo,Placebo,2014-01-02,2014-01-02T00:00:00Z,H,2014-07-02,2014-07-02T23:59:59Z,H,COMPLETED,2014-07-02,,2014-01-02,2014-07-02,182,,,,,2014-05-07,126,Week 16,16,General Score 01,QSG01,NEI VFQ-25,Averaged Result,80,,62.5,17.5,28.000000000000004,,Y,Y,,,,,,,,,,,,,10,WEEK 16,,,
75,CDISCPILOT01,01-701-1015,1015,701,USA,,2014-01-02,2014-07-02,2014-01-02,2014-07-02,2014-07-02T11:45,,,,,,,,,,,,75,NA,2013-12-26,-7,63,YEARS,18-64,F,WHITE,White,HISPANIC OR LATINO,Y,Placebo,Pbo,Placebo,Pbo,Placebo,Placebo,2014-01-02,2014-01-02T00:00:00Z,H,2014-07-02,2014-07-02T23:59:59Z,H,COMPLETED,2014-07-02,,2014-01-02,2014-07-02,182,,,,,2014-05-21,140,Week 20,20,General Score 01,QSG01,NEI VFQ-25,Averaged Result,55,,62.5,-7.5,-12,,Y,Y,,,,,,,,,,,,,11,WEEK 20,,,
76,CDISCPILOT01,01-701-1015,1015,701,USA,,2014-01-02,2014-07-02,2014-01-02,2014-07-02,2014-07-02T11:45,,,,,,,,,,,,76,NA,2013-12-26,-7,63,YEARS,18-64,F,WHITE,White,HISPANIC OR LATINO,Y,Placebo,Pbo,Placebo,Pbo,Placebo,Placebo,2014-01-02,2014-01-02T00:00:00Z,H,2014-07-02,2014-07-02T23:59:59Z,H,COMPLETED,2014-07-02,,2014-01-02,2014-07-02,182,,,,,2014-06-04,154,Week 22 (T),22,General Score 01,QSG01,NEI VFQ-25,Averaged Result,55,,62.5,-7.5,-12,,Y,Y,,,,,,,,,,,,,11.1,WEEK 22 (T),,,
77,CDISCPILOT01,01-701-1015,1015,701,USA,,2014-01-02,2014-07-02,2014-01-02,2014-07-02,2014-07-02T11:45,,,,,,,,,,,,77,NA,2013-12-26,-7,63,YEARS,18-64,F,WHITE,White,HISPANIC OR LATINO,Y,Placebo,Pbo,Placebo,Pbo,Placebo,Placebo,2014-01-02,2014-01-02T00:00:00Z,H,2014-07-02,2014-07-02T23:59:59Z,H,COMPLETED,2014-07-02,,2014-01-02,2014-07-02,182,,,,,2014-06-18,168,Week 24,24,General Score 01,QSG01,NEI VFQ-25,Averaged Result,50,,62.5,-12.5,-20,,Y,Y,,,,,,,,,,,,,12,WEEK 24,,,
78,CDISCPILOT01,01-701-1015,1015,701,USA,,2014-01-02,2014-07-02,2014-01-02,2014-07-02,2014-07-02T11:45,,,,,,,,,,,,78,NA,2013-12-26,-7,63,YEARS,18-64,F,WHITE,White,HISPANIC OR LATINO,Y,Placebo,Pbo,Placebo,Pbo,Placebo,Placebo,2014-01-02,2014-01-02T00:00:00Z,H,2014-07-02,2014-07-02T23:59:59Z,H,COMPLETED,2014-07-02,,2014-01-02,2014-07-02,182,,,,,2014-07-02,182,Week 26,26,General Score 01,QSG01,NEI VFQ-25,Averaged Result,40,,62.5,-22.5,-36,,Y,Y,,,,,,,,,,,,,13,WEEK 26,,,
79,CDISCPILOT01,01-701-1015,1015,701,USA,,2014-01-02,2014-07-02,2014-01-02,2014-07-02,2014-07-02T11:45,,,,,,,,,,,,79,NA,2013-12-26,-7,63,YEARS,18-64,F,WHITE,White,HISPANIC OR LATINO,Y,Placebo,Pbo,Placebo,Pbo,Placebo,Placebo,2014-01-02,2014-01-02T00:00:00Z,H,2014-07-02,2014-07-02T23:59:59Z,H,COMPLETED,2014-07-02,,2014-01-02,2014-07-02,182,,,,,2013-12-26,-7,,,General Score 02,QSG02,NEI VFQ-25,Averaged Result,25,,12.5,12.5,100,,,,,,,,,,,,,,,,1,SCREENING 1,,,
80,CDISCPILOT01,01-701-1015,1015,701,USA,,2014-01-02,2014-07-02,2014-01-02,2014-07-02,2014-07-02T11:45,,,,,,,,,,,,80,NA,2013-12-26,-7,63,YEARS,18-64,F,WHITE,White,HISPANIC OR LATINO,Y,Placebo,Pbo,Placebo,Pbo,Placebo,Placebo,2014-01-02,2014-01-02T00:00:00Z,H,2014-07-02,2014-07-02T23:59:59Z,H,COMPLETED,2014-07-02,,2014-01-02,2014-07-02,182,,,,,2014-01-02,1,Baseline,0,General Score 02,QSG02,NEI VFQ-25,Averaged Result,12.5,,12.5,0,0,Y,,,,,,,,,,,,,,,3,BASELINE,,,
81,CDISCPILOT01,01-701-1015,1015,701,USA,,2014-01-02,2014-07-02,2014-01-02,2014-07-02,2014-07-02T11:45,,,,,,,,,,,,81,NA,2013-12-26,-7,63,YEARS,18-64,F,WHITE,White,HISPANIC OR LATINO,Y,Placebo,Pbo,Placebo,Pbo,Placebo,Placebo,2014-01-02,2014-01-02T00:00:00Z,H,2014-07-02,2014-07-02T23:59:59Z,H,COMPLETED,2014-07-02,,2014-01-02,2014-07-02,182,,,,,2014-01-16,15,Week 2,2,General Score 02,QSG02,NEI VFQ-25,Averaged Result,12.5,,12.5,0,0,,Y,Y,,,,,,,,,,,,,4,WEEK 2,,,
82,CDISCPILOT01,01-701-1015,1015,701,USA,,2014-01-02,2014-07-02,2014-01-02,2014-07-02,2014-07-02T11:45,,,,,,,,,,,,82,NA,2013-12-26,-7,63,YEARS,18-64,F,WHITE,White,HISPANIC OR LATINO,Y,Placebo,Pbo,Placebo,Pbo,Placebo,Placebo,2014-01-02,2014-01-02T00:00:00Z,H,2014-07-02,2014-07-02T23:59:59Z,H,COMPLETED,2014-07-02,,2014-01-02,2014-07-02,182,,,,,2014-01-30,29,Week 4,4,General Score 02,QSG02,NEI VFQ-25,Averaged Result,25,,12.5,12.5,100,,Y,Y,,,,,,,,,,,,,5,WEEK 4,,,
83,CDISCPILOT01,01-701-1015,1015,701,USA,,2014-01-02,2014-07-02,2014-01-02,2014-07-02,2014-07-02T11:45,,,,,,,,,,,,83,NA,2013-12-26,-7,63,YEARS,18-64,F,WHITE,White,HISPANIC OR LATINO,Y,Placebo,Pbo,Placebo,Pbo,Placebo,Placebo,2014-01-02,2014-01-02T00:00:00Z,H,2014-07-02,2014-07-02T23:59:59Z,H,COMPLETED,2014-07-02,,2014-01-02,2014-07-02,182,,,,,2014-02-12,42,Week 6,6,General Score 02,QSG02,NEI VFQ-25,Averaged Result,75,,12.5,62.5,500,,Y,Y,,,,,,,,,,,,,7,WEEK 6,,,
84,CDISCPILOT01,01-701-1015,1015,701,USA,,2014-01-02,2014-07-02,2014-01-02,2014-07-02,2014-07-02T11:45,,,,,,,,,,,,84,NA,2013-12-26,-7,63,YEARS,18-64,F,WHITE,White,HISPANIC OR LATINO,Y,Placebo,Pbo,Placebo,Pbo,Placebo,Placebo,2014-01-02,2014-01-02T00:00:00Z,H,2014-07-02,2014-07-02T23:59:59Z,H,COMPLETED,2014-07-02,,2014-01-02,2014-07-02,182,,,,,2014-03-05,63,Week 8,8,General Score 02,QSG02,NEI VFQ-25,Averaged Result,50,,12.5,37.5,300,,Y,Y,,,,,,,,,,,,,8,WEEK 8,,,
85,CDISCPILOT01,01-701-1015,1015,701,USA,,2014-01-02,2014-07-02,2014-01-02,2014-07-02,2014-07-02T11:45,,,,,,,,,,,,85,NA,2013-12-26,-7,63,YEARS,18-64,F,WHITE,White,HISPANIC OR LATINO,Y,Placebo,Pbo,Placebo,Pbo,Placebo,Placebo,2014-01-02,2014-01-02T00:00:00Z,H,2014-07-02,2014-07-02T23:59:59Z,H,COMPLETED,2014-07-02,,2014-01-02,2014-07-02,182,,,,,2014-03-26,84,Week 12,12,General Score 02,QSG02,NEI VFQ-25,Averaged Result,37.5,,12.5,25,200,,Y,Y,,,,,,,,,,,,,9,WEEK 12,,,
86,CDISCPILOT01,01-701-1015,1015,701,USA,,2014-01-02,2014-07-02,2014-01-02,2014-07-02,2014-07-02T11:45,,,,,,,,,,,,86,NA,2013-12-26,-7,63,YEARS,18-64,F,WHITE,White,HISPANIC OR LATINO,Y,Placebo,Pbo,Placebo,Pbo,Placebo,Placebo,2014-01-02,2014-01-02T00:00:00Z,H,2014-07-02,2014-07-02T23:59:59Z,H,COMPLETED,2014-07-02,,2014-01-02,2014-07-02,182,,,,,2014-04-09,98,Week 14 (T),14,General Score 02,QSG02,NEI VFQ-25,Averaged Result,0,,12.5,-12.5,-100,,Y,Y,,,,,,,,,,,,,9.1,WEEK 14 (T),,,
87,CDISCPILOT01,01-701-1015,1015,701,USA,,2014-01-02,2014-07-02,2014-01-02,2014-07-02,2014-07-02T11:45,,,,,,,,,,,,87,NA,2013-12-26,-7,63,YEARS,18-64,F,WHITE,White,HISPANIC OR LATINO,Y,Placebo,Pbo,Placebo,Pbo,Placebo,Placebo,2014-01-02,2014-01-02T00:00:00Z,H,2014-07-02,2014-07-02T23:59:59Z,H,COMPLETED,2014-07-02,,2014-01-02,2014-07-02,182,,,,,2014-05-07,126,Week 16,16,General Score 02,QSG02,NEI VFQ-25,Averaged Result,50,,12.5,37.5,300,,Y,Y,,,,,,,,,,,,,10,WEEK 16,,,
88,CDISCPILOT01,01-701-1015,1015,701,USA,,2014-01-02,2014-07-02,2014-01-02,2014-07-02,2014-07-02T11:45,,,,,,,,,,,,88,NA,2013-12-26,-7,63,YEARS,18-64,F,WHITE,White,HISPANIC OR LATINO,Y,Placebo,Pbo,Placebo,Pbo,Placebo,Placebo,2014-01-02,2014-01-02T00:00:00Z,H,2014-07-02,2014-07-02T23:59:59Z,H,COMPLETED,2014-07-02,,2014-01-02,2014-07-02,182,,,,,2014-05-21,140,Week 20,20,General Score 02,QSG02,NEI VFQ-25,Averaged Result,50,,12.5,37.5,300,,Y,Y,,,,,,,,,,,,,11,WEEK 20,,,
89,CDISCPILOT01,01-701-1015,1015,701,USA,,2014-01-02,2014-07-02,2014-01-02,2014-07-02,2014-07-02T11:45,,,,,,,,,,,,89,NA,2013-12-26,-7,63,YEARS,18-64,F,WHITE,White,HISPANIC OR LATINO,Y,Placebo,Pbo,Placebo,Pbo,Placebo,Placebo,2014-01-02,2014-01-02T00:00:00Z,H,2014-07-02,2014-07-02T23:59:59Z,H,COMPLETED,2014-07-02,,2014-01-02,2014-07-02,182,,,,,2014-06-04,154,Week 22 (T),22,General Score 02,QSG02,NEI VFQ-25,Averaged Result,25,,12.5,12.5,100,,Y,Y,,,,,,,,,,,,,11.1,WEEK 22 (T),,,
90,CDISCPILOT01,01-701-1015,1015,701,USA,,2014-01-02,2014-07-02,2014-01-02,2014-07-02,2014-07-02T11:45,,,,,,,,,,,,90,NA,2013-12-26,-7,63,YEARS,18-64,F,WHITE,White,HISPANIC OR LATINO,Y,Placebo,Pbo,Placebo,Pbo,Placebo,Placebo,2014-01-02,2014-01-02T00:00:00Z,H,2014-07-02,2014-07-02T23:59:59Z,H,COMPLETED,2014-07-02,,2014-01-02,2014-07-02,182,,,,,2014-06-18,168,Week 24,24,General Score 02,QSG02,NEI VFQ-25,Averaged Result,25,,12.5,12.5,100,,Y,Y,,,,,,,,,,,,,12,WEEK 24,,,
91,CDISCPILOT01,01-701-1015,1015,701,USA,,2014-01-02,2014-07-02,2014-01-02,2014-07-02,2014-07-02T11:45,,,,,,,,,,,,91,NA,2013-12-26,-7,63,YEARS,18-64,F,WHITE,White,HISPANIC OR LATINO,Y,Placebo,Pbo,Placebo,Pbo,Placebo,Placebo,2014-01-02,2014-01-02T00:00:00Z,H,2014-07-02,2014-07-02T23:59:59Z,H,COMPLETED,2014-07-02,,2014-01-02,2014-07-02,182,,,,,2014-07-02,182,Week 26,26,General Score 02,QSG02,NEI VFQ-25,Averaged Result,62.5,,12.5,50,400,,Y,Y,,,,,,,,,,,,,13,WEEK 26,,,
92,CDISCPILOT01,01-701-1015,1015,701,USA,QS,2014-01-02,2014-07-02,2014-01-02,2014-07-02,2014-07-02T11:45,,,,,,,,,,,,92,NA,2013-12-26,-7,63,YEARS,18-64,F,WHITE,White,HISPANIC OR LATINO,Y,Placebo,Pbo,Placebo,Pbo,Placebo,Placebo,2014-01-02,2014-01-02T00:00:00Z,H,2014-07-02,2014-07-02T23:59:59Z,H,COMPLETED,2014-07-02,,2014-01-02,2014-07-02,182,,,,,2013-12-26,-7,,,Overall Health,VFQ1,NEI VFQ-25,Original Response,1,FAIR,4,-3,-75,,,,36,VFQ1,Your Overall Health Is,NEI VFQ-25,Original Response,FAIR,,FAIR,1,,,,1,SCREENING 1,-7,2013-12-26,-7
93,CDISCPILOT01,01-701-1015,1015,701,USA,QS,2014-01-02,2014-07-02,2014-01-02,2014-07-02,2014-07-02T11:45,,,,,,,,,,,,93,NA,2013-12-26,-7,63,YEARS,18-64,F,WHITE,White,HISPANIC OR LATINO,Y,Placebo,Pbo,Placebo,Pbo,Placebo,Placebo,2014-01-02,2014-01-02T00:00:00Z,H,2014-07-02,2014-07-02T23:59:59Z,H,COMPLETED,2014-07-02,,2014-01-02,2014-07-02,182,,,,,2014-01-02,1,Baseline,0,Overall Health,VFQ1,NEI VFQ-25,Original Response,4,VERY GOOD,4,0,0,Y,,,1,VFQ1,Your Overall Health Is,NEI VFQ-25,Original Response,VERY GOOD,,VERY GOOD,4,,Y,,3,BASELINE,1,2014-01-02,1
94,CDISCPILOT01,01-701-1015,1015,701,USA,QS,2014-01-02,2014-07-02,2014-01-02,2014-07-02,2014-07-02T11:45,,,,,,,,,,,,94,NA,2013-12-26,-7,63,YEARS,18-64,F,WHITE,White,HISPANIC OR LATINO,Y,Placebo,Pbo,Placebo,Pbo,Placebo,Placebo,2014-01-02,2014-01-02T00:00:00Z,H,2014-07-02,2014-07-02T23:59:59Z,H,COMPLETED,2014-07-02,,2014-01-02,2014-07-02,182,,,,,2014-01-16,15,Week 2,2,Overall Health,VFQ1,NEI VFQ-25,Original Response,4,VERY GOOD,4,0,0,,Y,Y,168,VFQ1,Your Overall Health Is,NEI VFQ-25,Original Response,VERY GOOD,,VERY GOOD,4,,,,4,WEEK 2,14,2014-01-16,15
95,CDISCPILOT01,01-701-1015,1015,701,USA,QS,2014-01-02,2014-07-02,2014-01-02,2014-07-02,2014-07-02T11:45,,,,,,,,,,,,95,NA,2013-12-26,-7,63,YEARS,18-64,F,WHITE,White,HISPANIC OR LATINO,Y,Placebo,Pbo,Placebo,Pbo,Placebo,Placebo,2014-01-02,2014-01-02T00:00:00Z,H,2014-07-02,2014-07-02T23:59:59Z,H,COMPLETED,2014-07-02,,2014-01-02,2014-07-02,182,,,,,2014-01-30,29,Week 4,4,Overall Health,VFQ1,NEI VFQ-25,Original Response,3,POOR,4,-1,-25,,Y,Y,297,VFQ1,Your Overall Health Is,NEI VFQ-25,Original Response,POOR,,POOR,3,,,,5,WEEK 4,28,2014-01-30,29
96,CDISCPILOT01,01-701-1015,1015,701,USA,QS,2014-01-02,2014-07-02,2014-01-02,2014-07-02,2014-07-02T11:45,,,,,,,,,,,,96,NA,2013-12-26,-7,63,YEARS,18-64,F,WHITE,White,HISPANIC OR LATINO,Y,Placebo,Pbo,Placebo,Pbo,Placebo,Placebo,2014-01-02,2014-01-02T00:00:00Z,H,2014-07-02,2014-07-02T23:59:59Z,H,COMPLETED,2014-07-02,,2014-01-02,2014-07-02,182,,,,,2014-02-12,42,Week 6,6,Overall Health,VFQ1,NEI VFQ-25,Original Response,2,GOOD,4,-2,-50,,Y,Y,324,VFQ1,Your Overall Health Is,NEI VFQ-25,Original Response,GOOD,,GOOD,2,,,,7,WEEK 6,42,2014-02-12,42
97,CDISCPILOT01,01-701-1015,1015,701,USA,QS,2014-01-02,2014-07-02,2014-01-02,2014-07-02,2014-07-02T11:45,,,,,,,,,,,,97,NA,2013-12-26,-7,63,YEARS,18-64,F,WHITE,White,HISPANIC OR LATINO,Y,Placebo,Pbo,Placebo,Pbo,Placebo,Placebo,2014-01-02,2014-01-02T00:00:00Z,H,2014-07-02,2014-07-02T23:59:59Z,H,COMPLETED,2014-07-02,,2014-01-02,2014-07-02,182,,,,,2014-03-05,63,Week 8,8,Overall Health,VFQ1,NEI VFQ-25,Original Response,1,FAIR,4,-3,-75,,Y,Y,374,VFQ1,Your Overall Health Is,NEI VFQ-25,Original Response,FAIR,,FAIR,1,,,,8,WEEK 8,56,2014-03-05,63
98,CDISCPILOT01,01-701-1015,1015,701,USA,QS,2014-01-02,2014-07-02,2014-01-02,2014-07-02,2014-07-02T11:45,,,,,,,,,,,,98,NA,2013-12-26,-7,63,YEARS,18-64,F,WHITE,White,HISPANIC OR LATINO,Y,Placebo,Pbo,Placebo,Pbo,Placebo,Placebo,2014-01-02,2014-01-02T00:00:00Z,H,2014-07-02,2014-07-02T23:59:59Z,H,COMPLETED,2014-07-02,,2014-01-02,2014-07-02,182,,,,,2014-03-26,84,Week 12,12,Overall Health,VFQ1,NEI VFQ-25,Original Response,1,FAIR,4,-3,-75,,Y,Y,62,VFQ1,Your Overall Health Is,NEI VFQ-25,Original Response,FAIR,,FAIR,1,,,,9,WEEK 12,84,2014-03-26,84
99,CDISCPILOT01,01-701-1015,1015,701,USA,QS,2014-01-02,2014-07-02,2014-01-02,2014-07-02,2014-07-02T11:45,,,,,,,,,,,,99,NA,2013-12-26,-7,63,YEARS,18-64,F,WHITE,White,HISPANIC OR LATINO,Y,Placebo,Pbo,Placebo,Pbo,Placebo,Placebo,2014-01-02,2014-01-02T00:00:00Z,H,2014-07-02,2014-07-02T23:59:59Z,H,COMPLETED,2014-07-02,,2014-01-02,2014-07-02,182,,,,,2014-04-09,98,Week 14 (T),14,Overall Health,VFQ1,NEI VFQ-25,Original Response,5,VERY POOR,4,1,25,,Y,Y,90,VFQ1,Your Overall Health Is,NEI VFQ-25,Original Response,VERY POOR,,VERY POOR,5,,,,9.1,WEEK 14 (T),98,2014-04-09,98
100,CDISCPILOT01,01-701-1015,1015,701,USA,QS,2014-01-02,2014-07-02,2014-01-02,2014-07-02,2014-07-02T11:45,,,,,,,,,,,,100,NA,2013-12-26,-7,63,YEARS,18-64,F,WHITE,White,HISPANIC OR LATINO,Y,Placebo,Pbo,Placebo,Pbo,Placebo,Placebo,2014-01-02,2014-01-02T00:00:00Z,H,2014-07-02,2014-07-02T23:59:59Z,H,COMPLETED,2014-07-02,,2014-01-02,2014-07-02,182,,,,,2014-05-07,126,Week 16,16,Overall Health,VFQ1,NEI VFQ-25,Original Response,1,FAIR,4,-3,-75,,Y,Y,131,VFQ1,Your Overall Health Is,NEI VFQ-25,Original Response,FAIR,,FAIR,1,,,,10,WEEK 16,112,2014-05-07,126
101,CDISCPILOT01,01-701-1015,1015,701,USA,QS,2014-01-02,2014-07-02,2014-01-02,2014-07-02,2014-07-02T11:45,,,,,,,,,,,,101,NA,2013-12-26,-7,63,YEARS,18-64,F,WHITE,White,HISPANIC OR LATINO,Y,Placebo,Pbo,Placebo,Pbo,Placebo,Placebo,2014-01-02,2014-01-02T00:00:00Z,H,2014-07-02,2014-07-02T23:59:59Z,H,COMPLETED,2014-07-02,,2014-01-02,2014-07-02,182,,,,,2014-05-21,140,Week 20,20,Overall Health,VFQ1,NEI VFQ-25,Original Response,3,POOR,4,-1,-25,,Y,Y,186,VFQ1,Your Overall Health Is,NEI VFQ-25,Original Response,POOR,,POOR,3,,,,11,WEEK 20,140,2014-05-21,140
102,CDISCPILOT01,01-701-1015,1015,701,USA,QS,2014-01-02,2014-07-02,2014-01-02,2014-07-02,2014-07-02T11:45,,,,,,,,,,,,102,NA,2013-12-26,-7,63,YEARS,18-64,F,WHITE,White,HISPANIC OR LATINO,Y,Placebo,Pbo,Placebo,Pbo,Placebo,Placebo,2014-01-02,2014-01-02T00:00:00Z,H,2014-07-02,2014-07-02T23:59:59Z,H,COMPLETED,2014-07-02,,2014-01-02,2014-07-02,182,,,,,2014-06-04,154,Week 22 (T),22,Overall Health,VFQ1,NEI VFQ-25,Original Response,3,POOR,4,-1,-25,,Y,Y,221,VFQ1,Your Overall Health Is,NEI VFQ-25,Original Response,POOR,,POOR,3,,,,11.1,WEEK 22 (T),154,2014-06-04,154
103,CDISCPILOT01,01-701-1015,1015,701,USA,QS,2014-01-02,2014-07-02,2014-01-02,2014-07-02,2014-07-02T11:45,,,,,,,,,,,,103,NA,2013-12-26,-7,63,YEARS,18-64,F,WHITE,White,HISPANIC OR LATINO,Y,Placebo,Pbo,Placebo,Pbo,Placebo,Placebo,2014-01-02,2014-01-02T00:00:00Z,H,2014-07-02,2014-07-02T23:59:59Z,H,COMPLETED,2014-07-02,,2014-01-02,2014-07-02,182,,,,,2014-06-18,168,Week 24,24,Overall Health,VFQ1,NEI VFQ-25,Original Response,5,VERY POOR,4,1,25,,Y,Y,249,VFQ1,Your Overall Health Is,NEI VFQ-25,Original Response,VERY POOR,,VERY POOR,5,,,,12,WEEK 24,168,2014-06-18,168
104,CDISCPILOT01,01-701-1015,1015,701,USA,QS,2014-01-02,2014-07-02,2014-01-02,2014-07-02,2014-07-02T11:45,,,,,,,,,,,,104,NA,2013-12-26,-7,63,YEARS,18-64,F,WHITE,White,HISPANIC OR LATINO,Y,Placebo,Pbo,Placebo,Pbo,Placebo,Placebo,2014-01-02,2014-01-02T00:00:00Z,H,2014-07-02,2014-07-02T23:59:59Z,H,COMPLETED,2014-07-02,,2014-01-02,2014-07-02,182,,,,,2014-07-02,182,Week 26,26,Overall Health,VFQ1,NEI VFQ-25,Original Response,5,VERY POOR,4,1,25,,Y,Y,290,VFQ1,Your Overall Health Is,NEI VFQ-25,Original Response,VERY POOR,,VERY POOR,5,,,,13,WEEK 26,182,2014-07-02,182
105,CDISCPILOT01,01-701-1015,1015,701,USA,QS,2014-01-02,2014-07-02,2014-01-02,2014-07-02,2014-07-02T11:45,,,,,,,,,,,,105,NA,2013-12-26,-7,63,YEARS,18-64,F,WHITE,White,HISPANIC OR LATINO,Y,Placebo,Pbo,Placebo,Pbo,Placebo,Placebo,2014-01-02,2014-01-02T00:00:00Z,H,2014-07-02,2014-07-02T23:59:59Z,H,COMPLETED,2014-07-02,,2014-01-02,2014-07-02,182,,,,,2013-12-26,-7,,,Eyesight in Both Eyes,VFQ2,NEI VFQ-25,Original Response,5,VERY POOR,1,4,400,,,,31,VFQ2,Eyesight Using Both Eyes Is,NEI VFQ-25,Original Response,VERY POOR,,VERY POOR,5,,,,1,SCREENING 1,-7,2013-12-26,-7
106,CDISCPILOT01,01-701-1015,1015,701,USA,QS,2014-01-02,2014-07-02,2014-01-02,2014-07-02,2014-07-02T11:45,,,,,,,,,,,,106,NA,2013-12-26,-7,63,YEARS,18-64,F,WHITE,White,HISPANIC OR LATINO,Y,Placebo,Pbo,Placebo,Pbo,Placebo,Placebo,2014-01-02,2014-01-02T00:00:00Z,H,2014-07-02,2014-07-02T23:59:59Z,H,COMPLETED,2014-07-02,,2014-01-02,2014-07-02,182,,,,,2014-01-02,1,Baseline,0,Eyesight in Both Eyes,VFQ2,NEI VFQ-25,Original Response,1,FAIR,1,0,0,Y,,,3,VFQ2,Eyesight Using Both Eyes Is,NEI VFQ-25,Original Response,FAIR,,FAIR,1,,Y,,3,BASELINE,1,2014-01-02,1
107,CDISCPILOT01,01-701-1015,1015,701,USA,QS,2014-01-02,2014-07-02,2014-01-02,2014-07-02,2014-07-02T11:45,,,,,,,,,,,,107,NA,2013-12-26,-7,63,YEARS,18-64,F,WHITE,White,HISPANIC OR LATINO,Y,Placebo,Pbo,Placebo,Pbo,Placebo,Placebo,2014-01-02,2014-01-02T00:00:00Z,H,2014-07-02,2014-07-02T23:59:59Z,H,COMPLETED,2014-07-02,,2014-01-02,2014-07-02,182,,,,,2014-01-16,15,Week 2,2,Eyesight in Both Eyes,VFQ2,NEI VFQ-25,Original Response,2,GOOD,1,1,100,,Y,Y,164,VFQ2,Eyesight Using Both Eyes Is,NEI VFQ-25,Original Response,GOOD,,GOOD,2,,,,4,WEEK 2,14,2014-01-16,15
108,CDISCPILOT01,01-701-1015,1015,701,USA,QS,2014-01-02,2014-07-02,2014-01-02,2014-07-02,2014-07-02T11:45,,,,,,,,,,,,108,NA,2013-12-26,-7,63,YEARS,18-64,F,WHITE,White,HISPANIC OR LATINO,Y,Placebo,Pbo,Placebo,Pbo,Placebo,Placebo,2014-01-02,2014-01-02T00:00:00Z,H,2014-07-02,2014-07-02T23:59:59Z,H,COMPLETED,2014-07-02,,2014-01-02,2014-07-02,182,,,,,2014-01-30,29,Week 4,4,Eyesight in Both Eyes,VFQ2,NEI VFQ-25,Original Response,1,FAIR,1,0,0,,Y,Y,313,VFQ2,Eyesight Using Both Eyes Is,NEI VFQ-25,Original Response,FAIR,,FAIR,1,,,,5,WEEK 4,28,2014-01-30,29
109,CDISCPILOT01,01-701-1015,1015,701,USA,QS,2014-01-02,2014-07-02,2014-01-02,2014-07-02,2014-07-02T11:45,,,,,,,,,,,,109,NA,2013-12-26,-7,63,YEARS,18-64,F,WHITE,White,HISPANIC OR LATINO,Y,Placebo,Pbo,Placebo,Pbo,Placebo,Placebo,2014-01-02,2014-01-02T00:00:00Z,H,2014-07-02,2014-07-02T23:59:59Z,H,COMPLETED,2014-07-02,,2014-01-02,2014-07-02,182,,,,,2014-02-12,42,Week 6,6,Eyesight in Both Eyes,VFQ2,NEI VFQ-25,Original Response,5,VERY POOR,1,4,400,,Y,Y,347,VFQ2,Eyesight Using Both Eyes Is,NEI VFQ-25,Original Response,VERY POOR,,VERY POOR,5,,,,7,WEEK 6,42,2014-02-12,42
110,CDISCPILOT01,01-701-1015,1015,701,USA,QS,2014-01-02,2014-07-02,2014-01-02,2014-07-02,2014-07-02T11:45,,,,,,,,,,,,110,NA,2013-12-26,-7,63,YEARS,18-64,F,WHITE,White,HISPANIC OR LATINO,Y,Placebo,Pbo,Placebo,Pbo,Placebo,Placebo,2014-01-02,2014-01-02T00:00:00Z,H,2014-07-02,2014-07-02T23:59:59Z,H,COMPLETED,2014-07-02,,2014-01-02,2014-07-02,182,,,,,2014-03-05,63,Week 8,8,Eyesight in Both Eyes,VFQ2,NEI VFQ-25,Original Response,2,GOOD,1,1,100,,Y,Y,349,VFQ2,Eyesight Using Both Eyes Is,NEI VFQ-25,Original Response,GOOD,,GOOD,2,,,,8,WEEK 8,56,2014-03-05,63
111,CDISCPILOT01,01-701-1015,1015,701,USA,QS,2014-01-02,2014-07-02,2014-01-02,2014-07-02,2014-07-02T11:45,,,,,,,,,,,,111,NA,2013-12-26,-7,63,YEARS,18-64,F,WHITE,White,HISPANIC OR LATINO,Y,Placebo,Pbo,Placebo,Pbo,Placebo,Placebo,2014-01-02,2014-01-02T00:00:00Z,H,2014-07-02,2014-07-02T23:59:59Z,H,COMPLETED,2014-07-02,,2014-01-02,2014-07-02,182,,,,,2014-03-26,84,Week 12,12,Eyesight in Both Eyes,VFQ2,NEI VFQ-25,Original Response,3,POOR,1,2,200,,Y,Y,78,VFQ2,Eyesight Using Both Eyes Is,NEI VFQ-25,Original Response,POOR,,POOR,3,,,,9,WEEK 12,84,2014-03-26,84
112,CDISCPILOT01,01-701-1015,1015,701,USA,QS,2014-01-02,2014-07-02,2014-01-02,2014-07-02,2014-07-02T11:45,,,,,,,,,,,,112,NA,2013-12-26,-7,63,YEARS,18-64,F,WHITE,White,HISPANIC OR LATINO,Y,Placebo,Pbo,Placebo,Pbo,Placebo,Placebo,2014-01-02,2014-01-02T00:00:00Z,H,2014-07-02,2014-07-02T23:59:59Z,H,COMPLETED,2014-07-02,,2014-01-02,2014-07-02,182,,,,,2014-04-09,98,Week 14 (T),14,Eyesight in Both Eyes,VFQ2,NEI VFQ-25,Original Response,3,POOR,1,2,200,,Y,Y,105,VFQ2,Eyesight Using Both Eyes Is,NEI VFQ-25,Original Response,POOR,,POOR,3,,,,9.1,WEEK 14 (T),98,2014-04-09,98
113,CDISCPILOT01,01-701-1015,1015,701,USA,QS,2014-01-02,2014-07-02,2014-01-02,2014-07-02,2014-07-02T11:45,,,,,,,,,,,,113,NA,2013-12-26,-7,63,YEARS,18-64,F,WHITE,White,HISPANIC OR LATINO,Y,Placebo,Pbo,Placebo,Pbo,Placebo,Placebo,2014-01-02,2014-01-02T00:00:00Z,H,2014-07-02,2014-07-02T23:59:59Z,H,COMPLETED,2014-07-02,,2014-01-02,2014-07-02,182,,,,,2014-05-07,126,Week 16,16,Eyesight in Both Eyes,VFQ2,NEI VFQ-25,Original Response,3,POOR,1,2,200,,Y,Y,119,VFQ2,Eyesight Using Both Eyes Is,NEI VFQ-25,Original Response,POOR,,POOR,3,,,,10,WEEK 16,112,2014-05-07,126
114,CDISCPILOT01,01-701-1015,1015,701,USA,QS,2014-01-02,2014-07-02,2014-01-02,2014-07-02,2014-07-02T11:45,,,,,,,,,,,,114,NA,2013-12-26,-7,63,YEARS,18-64,F,WHITE,White,HISPANIC OR LATINO,Y,Placebo,Pbo,Placebo,Pbo,Placebo,Placebo,2014-01-02,2014-01-02T00:00:00Z,H,2014-07-02,2014-07-02T23:59:59Z,H,COMPLETED,2014-07-02,,2014-01-02,2014-07-02,182,,,,,2014-05-21,140,Week 20,20,Eyesight in Both Eyes,VFQ2,NEI VFQ-25,Original Response,3,POOR,1,2,200,,Y,Y,201,VFQ2,Eyesight Using Both Eyes Is,NEI VFQ-25,Original Response,POOR,,POOR,3,,,,11,WEEK 20,140,2014-05-21,140
115,CDISCPILOT01,01-701-1015,1015,701,USA,QS,2014-01-02,2014-07-02,2014-01-02,2014-07-02,2014-07-02T11:45,,,,,,,,,,,,115,NA,2013-12-26,-7,63,YEARS,18-64,F,WHITE,White,HISPANIC OR LATINO,Y,Placebo,Pbo,Placebo,Pbo,Placebo,Placebo,2014-01-02,2014-01-02T00:00:00Z,H,2014-07-02,2014-07-02T23:59:59Z,H,COMPLETED,2014-07-02,,2014-01-02,2014-07-02,182,,,,,2014-06-04,154,Week 22 (T),22,Eyesight in Both Eyes,VFQ2,NEI VFQ-25,Original Response,3,POOR,1,2,200,,Y,Y,230,VFQ2,Eyesight Using Both Eyes Is,NEI VFQ-25,Original Response,POOR,,POOR,3,,,,11.1,WEEK 22 (T),154,2014-06-04,154
116,CDISCPILOT01,01-701-1015,1015,701,USA,QS,2014-01-02,2014-07-02,2014-01-02,2014-07-02,2014-07-02T11:45,,,,,,,,,,,,116,NA,2013-12-26,-7,63,YEARS,18-64,F,WHITE,White,HISPANIC OR LATINO,Y,Placebo,Pbo,Placebo,Pbo,Placebo,Placebo,2014-01-02,2014-01-02T00:00:00Z,H,2014-07-02,2014-07-02T23:59:59Z,H,COMPLETED,2014-07-02,,2014-01-02,2014-07-02,182,,,,,2014-06-18,168,Week 24,24,Eyesight in Both Eyes,VFQ2,NEI VFQ-25,Original Response,1,FAIR,1,0,0,,Y,Y,235,VFQ2,Eyesight Using Both Eyes Is,NEI VFQ-25,Original Response,FAIR,,FAIR,1,,,,12,WEEK 24,168,2014-06-18,168
117,CDISCPILOT01,01-701-1015,1015,701,USA,QS,2014-01-02,2014-07-02,2014-01-02,2014-07-02,2014-07-02T11:45,,,,,,,,,,,,117,NA,2013-12-26,-7,63,YEARS,18-64,F,WHITE,White,HISPANIC OR LATINO,Y,Placebo,Pbo,Placebo,Pbo,Placebo,Placebo,2014-01-02,2014-01-02T00:00:00Z,H,2014-07-02,2014-07-02T23:59:59Z,H,COMPLETED,2014-07-02,,2014-01-02,2014-07-02,182,,,,,2014-07-02,182,Week 26,26,Eyesight in Both Eyes,VFQ2,NEI VFQ-25,Original Response,2,GOOD,1,1,100,,Y,Y,288,VFQ2,Eyesight Using Both Eyes Is,NEI VFQ-25,Original Response,GOOD,,GOOD,2,,,,13,WEEK 26,182,2014-07-02,182
118,CDISCPILOT01,01-701-1015,1015,701,USA,QS,2014-01-02,2014-07-02,2014-01-02,2014-07-02,2014-07-02T11:45,,,,,,,,,,,,118,NA,2013-12-26,-7,63,YEARS,18-64,F,WHITE,White,HISPANIC OR LATINO,Y,Placebo,Pbo,Placebo,Pbo,Placebo,Placebo,2014-01-02,2014-01-02T00:00:00Z,H,2014-07-02,2014-07-02T23:59:59Z,H,COMPLETED,2014-07-02,,2014-01-02,2014-07-02,182,,,,,2013-12-26,-7,,,Worry About Eyesight,VFQ3,NEI VFQ-25,Original Response,2,NEVER,2,0,0,,,,35,VFQ3,How Often You Worry About Eyesight,NEI VFQ-25,Original Response,NEVER,,NEVER,2,,,,1,SCREENING 1,-7,2013-12-26,-7
119,CDISCPILOT01,01-701-1015,1015,701,USA,QS,2014-01-02,2014-07-02,2014-01-02,2014-07-02,2014-07-02T11:45,,,,,,,,,,,,119,NA,2013-12-26,-7,63,YEARS,18-64,F,WHITE,White,HISPANIC OR LATINO,Y,Placebo,Pbo,Placebo,Pbo,Placebo,Placebo,2014-01-02,2014-01-02T00:00:00Z,H,2014-07-02,2014-07-02T23:59:59Z,H,COMPLETED,2014-07-02,,2014-01-02,2014-07-02,182,,,,,2014-01-02,1,Baseline,0,Worry About Eyesight,VFQ3,NEI VFQ-25,Original Response,2,NEVER,2,0,0,Y,,,15,VFQ3,How Often You Worry About Eyesight,NEI VFQ-25,Original Response,NEVER,,NEVER,2,,Y,,3,BASELINE,1,2014-01-02,1
120,CDISCPILOT01,01-701-1015,1015,701,USA,QS,2014-01-02,2014-07-02,2014-01-02,2014-07-02,2014-07-02T11:45,,,,,,,,,,,,120,NA,2013-12-26,-7,63,YEARS,18-64,F,WHITE,White,HISPANIC OR LATINO,Y,Placebo,Pbo,Placebo,Pbo,Placebo,Placebo,2014-01-02,2014-01-02T00:00:00Z,H,2014-07-02,2014-07-02T23:59:59Z,H,COMPLETED,2014-07-02,,2014-01-02,2014-07-02,182,,,,,2014-01-16,15,Week 2,2,Worry About Eyesight,VFQ3,NEI VFQ-25,Original Response,1,FREQUENTLY,2,-1,-50,,Y,Y,149,VFQ3,How Often You Worry About Eyesight,NEI VFQ-25,Original Response,FREQUENTLY,,FREQUENTLY,1,,,,4,WEEK 2,14,2014-01-16,15
121,CDISCPILOT01,01-701-1015,1015,701,USA,QS,2014-01-02,2014-07-02,2014-01-02,2014-07-02,2014-07-02T11:45,,,,,,,,,,,,121,NA,2013-12-26,-7,63,YEARS,18-64,F,WHITE,White,HISPANIC OR LATINO,Y,Placebo,Pbo,Placebo,Pbo,Placebo,Placebo,2014-01-02,2014-01-02T00:00:00Z,H,2014-07-02,2014-07-02T23:59:59Z,H,COMPLETED,2014-07-02,,2014-01-02,2014-07-02,182,,,,,2014-01-30,29,Week 4,4,Worry About Eyesight,VFQ3,NEI VFQ-25,Original Response,2,NEVER,2,0,0,,Y,Y,292,VFQ3,How Often You Worry About Eyesight,NEI VFQ-25,Original Response,NEVER,,NEVER,2,,,,5,WEEK 4,28,2014-01-30,29
122,CDISCPILOT01,01-701-1015,1015,701,USA,QS,2014-01-02,2014-07-02,2014-01-02,2014-07-02,2014-07-02T11:45,,,,,,,,,,,,122,NA,2013-12-26,-7,63,YEARS,18-64,F,WHITE,White,HISPANIC OR LATINO,Y,Placebo,Pbo,Placebo,Pbo,Placebo,Placebo,2014-01-02,2014-01-02T00:00:00Z,H,2014-07-02,2014-07-02T23:59:59Z,H,COMPLETED,2014-07-02,,2014-01-02,2014-07-02,182,,,,,2014-02-12,42,Week 6,6,Worry About Eyesight,VFQ3,NEI VFQ-25,Original Response,4,SOMETIMES,2,2,100,,Y,Y,338,VFQ3,How Often You Worry About Eyesight,NEI VFQ-25,Original Response,SOMETIMES,,SOMETIMES,4,,,,7,WEEK 6,42,2014-02-12,42
123,CDISCPILOT01,01-701-1015,1015,701,USA,QS,2014-01-02,2014-07-02,2014-01-02,2014-07-02,2014-07-02T11:45,,,,,,,,,,,,123,NA,2013-12-26,-7,63,YEARS,18-64,F,WHITE,White,HISPANIC OR LATINO,Y,Placebo,Pbo,Placebo,Pbo,Placebo,Placebo,2014-01-02,2014-01-02T00:00:00Z,H,2014-07-02,2014-07-02T23:59:59Z,H,COMPLETED,2014-07-02,,2014-01-02,2014-07-02,182,,,,,2014-03-05,63,Week 8,8,Worry About Eyesight,VFQ3,NEI VFQ-25,Original Response,2,NEVER,2,0,0,,Y,Y,361,VFQ3,How Often You Worry About Eyesight,NEI VFQ-25,Original Response,NEVER,,NEVER,2,,,,8,WEEK 8,56,2014-03-05,63
124,CDISCPILOT01,01-701-1015,1015,701,USA,QS,2014-01-02,2014-07-02,2014-01-02,2014-07-02,2014-07-02T11:45,,,,,,,,,,,,124,NA,2013-12-26,-7,63,YEARS,18-64,F,WHITE,White,HISPANIC OR LATINO,Y,Placebo,Pbo,Placebo,Pbo,Placebo,Placebo,2014-01-02,2014-01-02T00:00:00Z,H,2014-07-02,2014-07-02T23:59:59Z,H,COMPLETED,2014-07-02,,2014-01-02,2014-07-02,182,,,,,2014-03-26,84,Week 12,12,Worry About Eyesight,VFQ3,NEI VFQ-25,Original Response,1,FREQUENTLY,2,-1,-50,,Y,Y,81,VFQ3,How Often You Worry About Eyesight,NEI VFQ-25,Original Response,FREQUENTLY,,FREQUENTLY,1,,,,9,WEEK 12,84,2014-03-26,84
125,CDISCPILOT01,01-701-1015,1015,701,USA,QS,2014-01-02,2014-07-02,2014-01-02,2014-07-02,2014-07-02T11:45,,,,,,,,,,,,125,NA,2013-12-26,-7,63,YEARS,18-64,F,WHITE,White,HISPANIC OR LATINO,Y,Placebo,Pbo,Placebo,Pbo,Placebo,Placebo,2014-01-02,2014-01-02T00:00:00Z,H,2014-07-02,2014-07-02T23:59:59Z,H,COMPLETED,2014-07-02,,2014-01-02,2014-07-02,182,,,,,2014-04-09,98,Week 14 (T),14,Worry About Eyesight,VFQ3,NEI VFQ-25,Original Response,1,FREQUENTLY,2,-1,-50,,Y,Y,115,VFQ3,How Often You Worry About Eyesight,NEI VFQ-25,Original Response,FREQUENTLY,,FREQUENTLY,1,,,,9.1,WEEK 14 (T),98,2014-04-09,98
126,CDISCPILOT01,01-701-1015,1015,701,USA,QS,2014-01-02,2014-07-02,2014-01-02,2014-07-02,2014-07-02T11:45,,,,,,,,,,,,126,NA,2013-12-26,-7,63,YEARS,18-64,F,WHITE,White,HISPANIC OR LATINO,Y,Placebo,Pbo,Placebo,Pbo,Placebo,Placebo,2014-01-02,2014-01-02T00:00:00Z,H,2014-07-02,2014-07-02T23:59:59Z,H,COMPLETED,2014-07-02,,2014-01-02,2014-07-02,182,,,,,2014-05-07,126,Week 16,16,Worry About Eyesight,VFQ3,NEI VFQ-25,Original Response,4,SOMETIMES,2,2,100,,Y,Y,120,VFQ3,How Often You Worry About Eyesight,NEI VFQ-25,Original Response,SOMETIMES,,SOMETIMES,4,,,,10,WEEK 16,112,2014-05-07,126
127,CDISCPILOT01,01-701-1015,1015,701,USA,QS,2014-01-02,2014-07-02,2014-01-02,2014-07-02,2014-07-02T11:45,,,,,,,,,,,,127,NA,2013-12-26,-7,63,YEARS,18-64,F,WHITE,White,HISPANIC OR LATINO,Y,Placebo,Pbo,Placebo,Pbo,Placebo,Placebo,2014-01-02,2014-01-02T00:00:00Z,H,2014-07-02,2014-07-02T23:59:59Z,H,COMPLETED,2014-07-02,,2014-01-02,2014-07-02,182,,,,,2014-05-21,140,Week 20,20,Worry About Eyesight,VFQ3,NEI VFQ-25,Original Response,4,SOMETIMES,2,2,100,,Y,Y,203,VFQ3,How Often You Worry About Eyesight,NEI VFQ-25,Original Response,SOMETIMES,,SOMETIMES,4,,,,11,WEEK 20,140,2014-05-21,140
128,CDISCPILOT01,01-701-1015,1015,701,USA,QS,2014-01-02,2014-07-02,2014-01-02,2014-07-02,2014-07-02T11:45,,,,,,,,,,,,128,NA,2013-12-26,-7,63,YEARS,18-64,F,WHITE,White,HISPANIC OR LATINO,Y,Placebo,Pbo,Placebo,Pbo,Placebo,Placebo,2014-01-02,2014-01-02T00:00:00Z,H,2014-07-02,2014-07-02T23:59:59Z,H,COMPLETED,2014-07-02,,2014-01-02,2014-07-02,182,,,,,2014-06-04,154,Week 22 (T),22,Worry About Eyesight,VFQ3,NEI VFQ-25,Original Response,1,FREQUENTLY,2,-1,-50,,Y,Y,229,VFQ3,How Often You Worry About Eyesight,NEI VFQ-25,Original Response,FREQUENTLY,,FREQUENTLY,1,,,,11.1,WEEK 22 (T),154,2014-06-04,154
129,CDISCPILOT01,01-701-1015,1015,701,USA,QS,2014-01-02,2014-07-02,2014-01-02,2014-07-02,2014-07-02T11:45,,,,,,,,,,,,129,NA,2013-12-26,-7,63,YEARS,18-64,F,WHITE,White,HISPANIC OR LATINO,Y,Placebo,Pbo,Placebo,Pbo,Placebo,Placebo,2014-01-02,2014-01-02T00:00:00Z,H,2014-07-02,2014-07-02T23:59:59Z,H,COMPLETED,2014-07-02,,2014-01-02,2014-07-02,182,,,,,2014-06-18,168,Week 24,24,Worry About Eyesight,VFQ3,NEI VFQ-25,Original Response,1,FREQUENTLY,2,-1,-50,,Y,Y,253,VFQ3,How Often You Worry About Eyesight,NEI VFQ-25,Original Response,FREQUENTLY,,FREQUENTLY,1,,,,12,WEEK 24,168,2014-06-18,168
130,CDISCPILOT01,01-701-1015,1015,701,USA,QS,2014-01-02,2014-07-02,2014-01-02,2014-07-02,2014-07-02T11:45,,,,,,,,,,,,130,NA,2013-12-26,-7,63,YEARS,18-64,F,WHITE,White,HISPANIC OR LATINO,Y,Placebo,Pbo,Placebo,Pbo,Placebo,Placebo,2014-01-02,2014-01-02T00:00:00Z,H,2014-07-02,2014-07-02T23:59:59Z,H,COMPLETED,2014-07-02,,2014-01-02,2014-07-02,182,,,,,2014-07-02,182,Week 26,26,Worry About Eyesight,VFQ3,NEI VFQ-25,Original Response,3,RARELY,2,1,50,,Y,Y,282,VFQ3,How Often You Worry About Eyesight,NEI VFQ-25,Original Response,RARELY,,RARELY,3,,,,13,WEEK 26,182,2014-07-02,182
131,CDISCPILOT01,01-701-1015,1015,701,USA,QS,2014-01-02,2014-07-02,2014-01-02,2014-07-02,2014-07-02T11:45,,,,,,,,,,,,131,NA,2013-12-26,-7,63,YEARS,18-64,F,WHITE,White,HISPANIC OR LATINO,Y,Placebo,Pbo,Placebo,Pbo,Placebo,Placebo,2014-01-02,2014-01-02T00:00:00Z,H,2014-07-02,2014-07-02T23:59:59Z,H,COMPLETED,2014-07-02,,2014-01-02,2014-07-02,182,,,,,2013-12-26,-7,,,Pain in and Around Eyes,VFQ4,NEI VFQ-25,Original Response,2,NEVER,1,1,100,,,,41,VFQ4,How Often Pain in and Around Eyes,NEI VFQ-25,Original Response,NEVER,,NEVER,2,,,,1,SCREENING 1,-7,2013-12-26,-7
132,CDISCPILOT01,01-701-1015,1015,701,USA,QS,2014-01-02,2014-07-02,2014-01-02,2014-07-02,2014-07-02T11:45,,,,,,,,,,,,132,NA,2013-12-26,-7,63,YEARS,18-64,F,WHITE,White,HISPANIC OR LATINO,Y,Placebo,Pbo,Placebo,Pbo,Placebo,Placebo,2014-01-02,2014-01-02T00:00:00Z,H,2014-07-02,2014-07-02T23:59:59Z,H,COMPLETED,2014-07-02,,2014-01-02,2014-07-02,182,,,,,2014-01-02,1,Baseline,0,Pain in and Around Eyes,VFQ4,NEI VFQ-25,Original Response,1,FREQUENTLY,1,0,0,Y,,,21,VFQ4,How Often Pain in and Around Eyes,NEI VFQ-25,Original Response,FREQUENTLY,,FREQUENTLY,1,,Y,,3,BASELINE,1,2014-01-02,1
133,CDISCPILOT01,01-701-1015,1015,701,USA,QS,2014-01-02,2014-07-02,2014-01-02,2014-07-02,2014-07-02T11:45,,,,,,,,,,,,133,NA,2013-12-26,-7,63,YEARS,18-64,F,WHITE,White,HISPANIC OR LATINO,Y,Placebo,Pbo,Placebo,Pbo,Placebo,Placebo,2014-01-02,2014-01-02T00:00:00Z,H,2014-07-02,2014-07-02T23:59:59Z,H,COMPLETED,2014-07-02,,2014-01-02,2014-07-02,182,,,,,2014-01-16,15,Week 2,2,Pain in and Around Eyes,VFQ4,NEI VFQ-25,Original Response,2,NEVER,1,1,100,,Y,Y,152,VFQ4,How Often Pain in and Around Eyes,NEI VFQ-25,Original Response,NEVER,,NEVER,2,,,,4,WEEK 2,14,2014-01-16,15
134,CDISCPILOT01,01-701-1015,1015,701,USA,QS,2014-01-02,2014-07-02,2014-01-02,2014-07-02,2014-07-02T11:45,,,,,,,,,,,,134,NA,2013-12-26,-7,63,YEARS,18-64,F,WHITE,White,HISPANIC OR LATINO,Y,Placebo,Pbo,Placebo,Pbo,Placebo,Placebo,2014-01-02,2014-01-02T00:00:00Z,H,2014-07-02,2014-07-02T23:59:59Z,H,COMPLETED,2014-07-02,,2014-01-02,2014-07-02,182,,,,,2014-01-30,29,Week 4,4,Pain in and Around Eyes,VFQ4,NEI VFQ-25,Original Response,2,NEVER,1,1,100,,Y,Y,303,VFQ4,How Often Pain in and Around Eyes,NEI VFQ-25,Original Response,NEVER,,NEVER,2,,,,5,WEEK 4,28,2014-01-30,29
135,CDISCPILOT01,01-701-1015,1015,701,USA,QS,2014-01-02,2014-07-02,2014-01-02,2014-07-02,2014-07-02T11:45,,,,,,,,,,,,135,NA,2013-12-26,-7,63,YEARS,18-64,F,WHITE,White,HISPANIC OR LATINO,Y,Placebo,Pbo,Placebo,Pbo,Placebo,Placebo,2014-01-02,2014-01-02T00:00:00Z,H,2014-07-02,2014-07-02T23:59:59Z,H,COMPLETED,2014-07-02,,2014-01-02,2014-07-02,182,,,,,2014-02-12,42,Week 6,6,Pain in and Around Eyes,VFQ4,NEI VFQ-25,Original Response,4,SOMETIMES,1,3,300,,Y,Y,330,VFQ4,How Often Pain in and Around Eyes,NEI VFQ-25,Original Response,SOMETIMES,,SOMETIMES,4,,,,7,WEEK 6,42,2014-02-12,42
136,CDISCPILOT01,01-701-1015,1015,701,USA,QS,2014-01-02,2014-07-02,2014-01-02,2014-07-02,2014-07-02T11:45,,,,,,,,,,,,136,NA,2013-12-26,-7,63,YEARS,18-64,F,WHITE,White,HISPANIC OR LATINO,Y,Placebo,Pbo,Placebo,Pbo,Placebo,Placebo,2014-01-02,2014-01-02T00:00:00Z,H,2014-07-02,2014-07-02T23:59:59Z,H,COMPLETED,2014-07-02,,2014-01-02,2014-07-02,182,,,,,2014-03-05,63,Week 8,8,Pain in and Around Eyes,VFQ4,NEI VFQ-25,Original Response,4,SOMETIMES,1,3,300,,Y,Y,362,VFQ4,How Often Pain in and Around Eyes,NEI VFQ-25,Original Response,SOMETIMES,,SOMETIMES,4,,,,8,WEEK 8,56,2014-03-05,63
137,CDISCPILOT01,01-701-1015,1015,701,USA,QS,2014-01-02,2014-07-02,2014-01-02,2014-07-02,2014-07-02T11:45,,,,,,,,,,,,137,NA,2013-12-26,-7,63,YEARS,18-64,F,WHITE,White,HISPANIC OR LATINO,Y,Placebo,Pbo,Placebo,Pbo,Placebo,Placebo,2014-01-02,2014-01-02T00:00:00Z,H,2014-07-02,2014-07-02T23:59:59Z,H,COMPLETED,2014-07-02,,2014-01-02,2014-07-02,182,,,,,2014-03-26,84,Week 12,12,Pain in and Around Eyes,VFQ4,NEI VFQ-25,Original Response,4,SOMETIMES,1,3,300,,Y,Y,72,VFQ4,How Often Pain in and Around Eyes,NEI VFQ-25,Original Response,SOMETIMES,,SOMETIMES,4,,,,9,WEEK 12,84,2014-03-26,84
138,CDISCPILOT01,01-701-1015,1015,701,USA,QS,2014-01-02,2014-07-02,2014-01-02,2014-07-02,2014-07-02T11:45,,,,,,,,,,,,138,NA,2013-12-26,-7,63,YEARS,18-64,F,WHITE,White,HISPANIC OR LATINO,Y,Placebo,Pbo,Placebo,Pbo,Placebo,Placebo,2014-01-02,2014-01-02T00:00:00Z,H,2014-07-02,2014-07-02T23:59:59Z,H,COMPLETED,2014-07-02,,2014-01-02,2014-07-02,182,,,,,2014-04-09,98,Week 14 (T),14,Pain in and Around Eyes,VFQ4,NEI VFQ-25,Original Response,1,FREQUENTLY,1,0,0,,Y,Y,111,VFQ4,How Often Pain in and Around Eyes,NEI VFQ-25,Original Response,FREQUENTLY,,FREQUENTLY,1,,,,9.1,WEEK 14 (T),98,2014-04-09,98
139,CDISCPILOT01,01-701-1015,1015,701,USA,QS,2014-01-02,2014-07-02,2014-01-02,2014-07-02,2014-07-02T11:45,,,,,,,,,,,,139,NA,2013-12-26,-7,63,YEARS,18-64,F,WHITE,White,HISPANIC OR LATINO,Y,Placebo,Pbo,Placebo,Pbo,Placebo,Placebo,2014-01-02,2014-01-02T00:00:00Z,H,2014-07-02,2014-07-02T23:59:59Z,H,COMPLETED,2014-07-02,,2014-01-02,2014-07-02,182,,,,,2014-05-07,126,Week 16,16,Pain in and Around Eyes,VFQ4,NEI VFQ-25,Original Response,2,NEVER,1,1,100,,Y,Y,140,VFQ4,How Often Pain in and Around Eyes,NEI VFQ-25,Original Response,NEVER,,NEVER,2,,,,10,WEEK 16,112,2014-05-07,126
140,CDISCPILOT01,01-701-1015,1015,701,USA,QS,2014-01-02,2014-07-02,2014-01-02,2014-07-02,2014-07-02T11:45,,,,,,,,,,,,140,NA,2013-12-26,-7,63,YEARS,18-64,F,WHITE,White,HISPANIC OR LATINO,Y,Placebo,Pbo,Placebo,Pbo,Placebo,Placebo,2014-01-02,2014-01-02T00:00:00Z,H,2014-07-02,2014-07-02T23:59:59Z,H,COMPLETED,2014-07-02,,2014-01-02,2014-07-02,182,,,,,2014-05-21,140,Week 20,20,Pain in and Around Eyes,VFQ4,NEI VFQ-25,Original Response,2,NEVER,1,1,100,,Y,Y,195,VFQ4,How Often Pain in and Around Eyes,NEI VFQ-25,Original Response,NEVER,,NEVER,2,,,,11,WEEK 20,140,2014-05-21,140
141,CDISCPILOT01,01-701-1015,1015,701,USA,QS,2014-01-02,2014-07-02,2014-01-02,2014-07-02,2014-07-02T11:45,,,,,,,,,,,,141,NA,2013-12-26,-7,63,YEARS,18-64,F,WHITE,White,HISPANIC OR LATINO,Y,Placebo,Pbo,Placebo,Pbo,Placebo,Placebo,2014-01-02,2014-01-02T00:00:00Z,H,2014-07-02,2014-07-02T23:59:59Z,H,COMPLETED,2014-07-02,,2014-01-02,2014-07-02,182,,,,,2014-06-04,154,Week 22 (T),22,Pain in and Around Eyes,VFQ4,NEI VFQ-25,Original Response,3,RARELY,1,2,200,,Y,Y,222,VFQ4,How Often Pain in and Around Eyes,NEI VFQ-25,Original Response,RARELY,,RARELY,3,,,,11.1,WEEK 22 (T),154,2014-06-04,154
142,CDISCPILOT01,01-701-1015,1015,701,USA,QS,2014-01-02,2014-07-02,2014-01-02,2014-07-02,2014-07-02T11:45,,,,,,,,,,,,142,NA,2013-12-26,-7,63,YEARS,18-64,F,WHITE,White,HISPANIC OR LATINO,Y,Placebo,Pbo,Placebo,Pbo,Placebo,Placebo,2014-01-02,2014-01-02T00:00:00Z,H,2014-07-02,2014-07-02T23:59:59Z,H,COMPLETED,2014-07-02,,2014-01-02,2014-07-02,182,,,,,2014-06-18,168,Week 24,24,Pain in and Around Eyes,VFQ4,NEI VFQ-25,Original Response,3,RARELY,1,2,200,,Y,Y,239,VFQ4,How Often Pain in and Around Eyes,NEI VFQ-25,Original Response,RARELY,,RARELY,3,,,,12,WEEK 24,168,2014-06-18,168
143,CDISCPILOT01,01-701-1015,1015,701,USA,QS,2014-01-02,2014-07-02,2014-01-02,2014-07-02,2014-07-02T11:45,,,,,,,,,,,,143,NA,2013-12-26,-7,63,YEARS,18-64,F,WHITE,White,HISPANIC OR LATINO,Y,Placebo,Pbo,Placebo,Pbo,Placebo,Placebo,2014-01-02,2014-01-02T00:00:00Z,H,2014-07-02,2014-07-02T23:59:59Z,H,COMPLETED,2014-07-02,,2014-01-02,2014-07-02,182,,,,,2014-07-02,182,Week 26,26,Pain in and Around Eyes,VFQ4,NEI VFQ-25,Original Response,4,SOMETIMES,1,3,300,,Y,Y,286,VFQ4,How Often Pain in and Around Eyes,NEI VFQ-25,Original Response,SOMETIMES,,SOMETIMES,4,,,,13,WEEK 26,182,2014-07-02,182
144,CDISCPILOT01,01-701-1023,1023,701,USA,,2012-08-05,2012-09-02,2012-08-05,2012-09-01,2013-02-18,,2013-02-18,,,,,,,,,,1,NA,2012-07-22,-14,64,YEARS,18-64,M,WHITE,White,HISPANIC OR LATINO,Y,Placebo,Pbo,Placebo,Pbo,Placebo,Placebo,2012-08-05,2012-08-05T00:00:00Z,H,2012-09-01,2012-09-01T23:59:59Z,H,DISCONTINUED,2012-09-02,,2012-08-05,2012-09-02,28,,,,,2012-07-22,-14,,,Composite Score,QBCSCORE,NEI VFQ-25,Averaged Result,115,,22.5,92.5,411.1111111111111,,,,,,,,,,,,,,,,1,SCREENING 1,,,
145,CDISCPILOT01,01-701-1023,1023,701,USA,,2012-08-05,2012-09-02,2012-08-05,2012-09-01,2013-02-18,,2013-02-18,,,,,,,,,,2,NA,2012-07-22,-14,64,YEARS,18-64,M,WHITE,White,HISPANIC OR LATINO,Y,Placebo,Pbo,Placebo,Pbo,Placebo,Placebo,2012-08-05,2012-08-05T00:00:00Z,H,2012-09-01,2012-09-01T23:59:59Z,H,DISCONTINUED,2012-09-02,,2012-08-05,2012-09-02,28,,,,,2012-08-05,1,Baseline,0,Composite Score,QBCSCORE,NEI VFQ-25,Averaged Result,22.5,,22.5,0,0,Y,,,,,,,,,,,,,,,3,BASELINE,,,
146,CDISCPILOT01,01-701-1023,1023,701,USA,,2012-08-05,2012-09-02,2012-08-05,2012-09-01,2013-02-18,,2013-02-18,,,,,,,,,,3,NA,2012-07-22,-14,64,YEARS,18-64,M,WHITE,White,HISPANIC OR LATINO,Y,Placebo,Pbo,Placebo,Pbo,Placebo,Placebo,2012-08-05,2012-08-05T00:00:00Z,H,2012-09-01,2012-09-01T23:59:59Z,H,DISCONTINUED,2012-09-02,,2012-08-05,2012-09-02,28,,,,,2012-08-27,23,Week 2,2,Composite Score,QBCSCORE,NEI VFQ-25,Averaged Result,112.5,,22.5,90,400,,Y,Y,,,,,,,,,,,,,4,WEEK 2,,,
147,CDISCPILOT01,01-701-1023,1023,701,USA,,2012-08-05,2012-09-02,2012-08-05,2012-09-01,2013-02-18,,2013-02-18,,,,,,,,,,4,NA,2012-07-22,-14,64,YEARS,18-64,M,WHITE,White,HISPANIC OR LATINO,Y,Placebo,Pbo,Placebo,Pbo,Placebo,Placebo,2012-08-05,2012-08-05T00:00:00Z,H,2012-09-01,2012-09-01T23:59:59Z,H,DISCONTINUED,2012-09-02,,2012-08-05,2012-09-02,28,,,,,2012-09-02,29,Week 4,4,Composite Score,QBCSCORE,NEI VFQ-25,Averaged Result,85,,22.5,62.5,277.77777777777777,,,,,,,,,,,,,,,,5,WEEK 4,,,
148,CDISCPILOT01,01-701-1023,1023,701,USA,,2012-08-05,2012-09-02,2012-08-05,2012-09-01,2013-02-18,,2013-02-18,,,,,,,,,,5,NA,2012-07-22,-14,64,YEARS,18-64,M,WHITE,White,HISPANIC OR LATINO,Y,Placebo,Pbo,Placebo,Pbo,Placebo,Placebo,2012-08-05,2012-08-05T00:00:00Z,H,2012-09-01,2012-09-01T23:59:59Z,H,DISCONTINUED,2012-09-02,,2012-08-05,2012-09-02,28,,,,,2013-02-18,198,,,Composite Score,QBCSCORE,NEI VFQ-25,Averaged Result,67.5,,22.5,45,200,,,,,,,,,,,,,,,,201,RETRIEVAL,,,
149,CDISCPILOT01,01-701-1023,1023,701,USA,,2012-08-05,2012-09-02,2012-08-05,2012-09-01,2013-02-18,,2013-02-18,,,,,,,,,,6,NA,2012-07-22,-14,64,YEARS,18-64,M,WHITE,White,HISPANIC OR LATINO,Y,Placebo,Pbo,Placebo,Pbo,Placebo,Placebo,2012-08-05,2012-08-05T00:00:00Z,H,2012-09-01,2012-09-01T23:59:59Z,H,DISCONTINUED,2012-09-02,,2012-08-05,2012-09-02,28,,,,,2012-07-22,-14,,,Recoded Item - 01,QR01,NEI VFQ-25,General 01,75,,0,75,,,,,,,,,,,,,,,,,1,SCREENING 1,,,
150,CDISCPILOT01,01-701-1023,1023,701,USA,,2012-08-05,2012-09-02,2012-08-05,2012-09-01,2013-02-18,,2013-02-18,,,,,,,,,,7,NA,2012-07-22,-14,64,YEARS,18-64,M,WHITE,White,HISPANIC OR LATINO,Y,Placebo,Pbo,Placebo,Pbo,Placebo,Placebo,2012-08-05,2012-08-05T00:00:00Z,H,2012-09-01,2012-09-01T23:59:59Z,H,DISCONTINUED,2012-09-02,,2012-08-05,2012-09-02,28,,,,,2012-08-05,1,Baseline,0,Recoded Item - 01,QR01,NEI VFQ-25,General 01,0,,0,0,,Y,,,,,,,,,,,,,,,3,BASELINE,,,
151,CDISCPILOT01,01-701-1023,1023,701,USA,,2012-08-05,2012-09-02,2012-08-05,2012-09-01,2013-02-18,,2013-02-18,,,,,,,,,,8,NA,2012-07-22,-14,64,YEARS,18-64,M,WHITE,White,HISPANIC OR LATINO,Y,Placebo,Pbo,Placebo,Pbo,Placebo,Placebo,2012-08-05,2012-08-05T00:00:00Z,H,2012-09-01,2012-09-01T23:59:59Z,H,DISCONTINUED,2012-09-02,,2012-08-05,2012-09-02,28,,,,,2012-08-27,23,Week 2,2,Recoded Item - 01,QR01,NEI VFQ-25,General 01,100,,0,100,,,Y,Y,,,,,,,,,,,,,4,WEEK 2,,,
152,CDISCPILOT01,01-701-1023,1023,701,USA,,2012-08-05,2012-09-02,2012-08-05,2012-09-01,2013-02-18,,2013-02-18,,,,,,,,,,9,NA,2012-07-22,-14,64,YEARS,18-64,M,WHITE,White,HISPANIC OR LATINO,Y,Placebo,Pbo,Placebo,Pbo,Placebo,Placebo,2012-08-05,2012-08-05T00:00:00Z,H,2012-09-01,2012-09-01T23:59:59Z,H,DISCONTINUED,2012-09-02,,2012-08-05,2012-09-02,28,,,,,2012-09-02,29,Week 4,4,Recoded Item - 01,QR01,NEI VFQ-25,General 01,100,,0,100,,,,,,,,,,,,,,,,,5,WEEK 4,,,
153,CDISCPILOT01,01-701-1023,1023,701,USA,,2012-08-05,2012-09-02,2012-08-05,2012-09-01,2013-02-18,,2013-02-18,,,,,,,,,,10,NA,2012-07-22,-14,64,YEARS,18-64,M,WHITE,White,HISPANIC OR LATINO,Y,Placebo,Pbo,Placebo,Pbo,Placebo,Placebo,2012-08-05,2012-08-05T00:00:00Z,H,2012-09-01,2012-09-01T23:59:59Z,H,DISCONTINUED,2012-09-02,,2012-08-05,2012-09-02,28,,,,,2013-02-18,198,,,Recoded Item - 01,QR01,NEI VFQ-25,General 01,25,,0,25,,,,,,,,,,,,,,,,,201,RETRIEVAL,,,
154,CDISCPILOT01,01-701-1023,1023,701,USA,,2012-08-05,2012-09-02,2012-08-05,2012-09-01,2013-02-18,,2013-02-18,,,,,,,,,,11,NA,2012-07-22,-14,64,YEARS,18-64,M,WHITE,White,HISPANIC OR LATINO,Y,Placebo,Pbo,Placebo,Pbo,Placebo,Placebo,2012-08-05,2012-08-05T00:00:00Z,H,2012-09-01,2012-09-01T23:59:59Z,H,DISCONTINUED,2012-09-02,,2012-08-05,2012-09-02,28,,,,,2012-07-22,-14,,,Recoded Item - 02,QR02,NEI VFQ-25,General 01,80,,20,60,300,,,,,,,,,,,,,,,,1,SCREENING 1,,,
155,CDISCPILOT01,01-701-1023,1023,701,USA,,2012-08-05,2012-09-02,2012-08-05,2012-09-01,2013-02-18,,2013-02-18,,,,,,,,,,12,NA,2012-07-22,-14,64,YEARS,18-64,M,WHITE,White,HISPANIC OR LATINO,Y,Placebo,Pbo,Placebo,Pbo,Placebo,Placebo,2012-08-05,2012-08-05T00:00:00Z,H,2012-09-01,2012-09-01T23:59:59Z,H,DISCONTINUED,2012-09-02,,2012-08-05,2012-09-02,28,,,,,2012-08-05,1,Baseline,0,Recoded Item - 02,QR02,NEI VFQ-25,General 01,20,,20,0,0,Y,,,,,,,,,,,,,,,3,BASELINE,,,
156,CDISCPILOT01,01-701-1023,1023,701,USA,,2012-08-05,2012-09-02,2012-08-05,2012-09-01,2013-02-18,,2013-02-18,,,,,,,,,,13,NA,2012-07-22,-14,64,YEARS,18-64,M,WHITE,White,HISPANIC OR LATINO,Y,Placebo,Pbo,Placebo,Pbo,Placebo,Placebo,2012-08-05,2012-08-05T00:00:00Z,H,2012-09-01,2012-09-01T23:59:59Z,H,DISCONTINUED,2012-09-02,,2012-08-05,2012-09-02,28,,,,,2012-08-27,23,Week 2,2,Recoded Item - 02,QR02,NEI VFQ-25,General 01,100,,20,80,400,,Y,Y,,,,,,,,,,,,,4,WEEK 2,,,
157,CDISCPILOT01,01-701-1023,1023,701,USA,,2012-08-05,2012-09-02,2012-08-05,2012-09-01,2013-02-18,,2013-02-18,,,,,,,,,,14,NA,2012-07-22,-14,64,YEARS,18-64,M,WHITE,White,HISPANIC OR LATINO,Y,Placebo,Pbo,Placebo,Pbo,Placebo,Placebo,2012-08-05,2012-08-05T00:00:00Z,H,2012-09-01,2012-09-01T23:59:59Z,H,DISCONTINUED,2012-09-02,,2012-08-05,2012-09-02,28,,,,,2012-09-02,29,Week 4,4,Recoded Item - 02,QR02,NEI VFQ-25,General 01,20,,20,0,0,,,,,,,,,,,,,,,,5,WEEK 4,,,
158,CDISCPILOT01,01-701-1023,1023,701,USA,,2012-08-05,2012-09-02,2012-08-05,2012-09-01,2013-02-18,,2013-02-18,,,,,,,,,,15,NA,2012-07-22,-14,64,YEARS,18-64,M,WHITE,White,HISPANIC OR LATINO,Y,Placebo,Pbo,Placebo,Pbo,Placebo,Placebo,2012-08-05,2012-08-05T00:00:00Z,H,2012-09-01,2012-09-01T23:59:59Z,H,DISCONTINUED,2012-09-02,,2012-08-05,2012-09-02,28,,,,,2013-02-18,198,,,Recoded Item - 02,QR02,NEI VFQ-25,General 01,60,,20,40,200,,,,,,,,,,,,,,,,201,RETRIEVAL,,,
159,CDISCPILOT01,01-701-1023,1023,701,USA,,2012-08-05,2012-09-02,2012-08-05,2012-09-01,2013-02-18,,2013-02-18,,,,,,,,,,16,NA,2012-07-22,-14,64,YEARS,18-64,M,WHITE,White,HISPANIC OR LATINO,Y,Placebo,Pbo,Placebo,Pbo,Placebo,Placebo,2012-08-05,2012-08-05T00:00:00Z,H,2012-09-01,2012-09-01T23:59:59Z,H,DISCONTINUED,2012-09-02,,2012-08-05,2012-09-02,28,,,,,2012-07-22,-14,,,Recoded Item - 03,QR03,NEI VFQ-25,General 02,50,,0,50,,,,,,,,,,,,,,,,,1,SCREENING 1,,,
160,CDISCPILOT01,01-701-1023,1023,701,USA,,2012-08-05,2012-09-02,2012-08-05,2012-09-01,2013-02-18,,2013-02-18,,,,,,,,,,17,NA,2012-07-22,-14,64,YEARS,18-64,M,WHITE,White,HISPANIC OR LATINO,Y,Placebo,Pbo,Placebo,Pbo,Placebo,Placebo,2012-08-05,2012-08-05T00:00:00Z,H,2012-09-01,2012-09-01T23:59:59Z,H,DISCONTINUED,2012-09-02,,2012-08-05,2012-09-02,28,,,,,2012-08-05,1,Baseline,0,Recoded Item - 03,QR03,NEI VFQ-25,General 02,0,,0,0,,Y,,,,,,,,,,,,,,,3,BASELINE,,,
161,CDISCPILOT01,01-701-1023,1023,701,USA,,2012-08-05,2012-09-02,2012-08-05,2012-09-01,2013-02-18,,2013-02-18,,,,,,,,,,18,NA,2012-07-22,-14,64,YEARS,18-64,M,WHITE,White,HISPANIC OR LATINO,Y,Placebo,Pbo,Placebo,Pbo,Placebo,Placebo,2012-08-05,2012-08-05T00:00:00Z,H,2012-09-01,2012-09-01T23:59:59Z,H,DISCONTINUED,2012-09-02,,2012-08-05,2012-09-02,28,,,,,2012-08-27,23,Week 2,2,Recoded Item - 03,QR03,NEI VFQ-25,General 02,0,,0,0,,,Y,Y,,,,,,,,,,,,,4,WEEK 2,,,
162,CDISCPILOT01,01-701-1023,1023,701,USA,,2012-08-05,2012-09-02,2012-08-05,2012-09-01,2013-02-18,,2013-02-18,,,,,,,,,,19,NA,2012-07-22,-14,64,YEARS,18-64,M,WHITE,White,HISPANIC OR LATINO,Y,Placebo,Pbo,Placebo,Pbo,Placebo,Placebo,2012-08-05,2012-08-05T00:00:00Z,H,2012-09-01,2012-09-01T23:59:59Z,H,DISCONTINUED,2012-09-02,,2012-08-05,2012-09-02,28,,,,,2012-09-02,29,Week 4,4,Recoded Item - 03,QR03,NEI VFQ-25,General 02,50,,0,50,,,,,,,,,,,,,,,,,5,WEEK 4,,,
163,CDISCPILOT01,01-701-1023,1023,701,USA,,2012-08-05,2012-09-02,2012-08-05,2012-09-01,2013-02-18,,2013-02-18,,,,,,,,,,20,NA,2012-07-22,-14,64,YEARS,18-64,M,WHITE,White,HISPANIC OR LATINO,Y,Placebo,Pbo,Placebo,Pbo,Placebo,Placebo,2012-08-05,2012-08-05T00:00:00Z,H,2012-09-01,2012-09-01T23:59:59Z,H,DISCONTINUED,2012-09-02,,2012-08-05,2012-09-02,28,,,,,2013-02-18,198,,,Recoded Item - 03,QR03,NEI VFQ-25,General 02,50,,0,50,,,,,,,,,,,,,,,,,201,RETRIEVAL,,,
164,CDISCPILOT01,01-701-1023,1023,701,USA,,2012-08-05,2012-09-02,2012-08-05,2012-09-01,2013-02-18,,2013-02-18,,,,,,,,,,21,NA,2012-07-22,-14,64,YEARS,18-64,M,WHITE,White,HISPANIC OR LATINO,Y,Placebo,Pbo,Placebo,Pbo,Placebo,Placebo,2012-08-05,2012-08-05T00:00:00Z,H,2012-09-01,2012-09-01T23:59:59Z,H,DISCONTINUED,2012-09-02,,2012-08-05,2012-09-02,28,,,,,2012-07-22,-14,,,Recoded Item - 04,QR04,NEI VFQ-25,General 02,25,,25,0,0,,,,,,,,,,,,,,,,1,SCREENING 1,,,
165,CDISCPILOT01,01-701-1023,1023,701,USA,,2012-08-05,2012-09-02,2012-08-05,2012-09-01,2013-02-18,,2013-02-18,,,,,,,,,,22,NA,2012-07-22,-14,64,YEARS,18-64,M,WHITE,White,HISPANIC OR LATINO,Y,Placebo,Pbo,Placebo,Pbo,Placebo,Placebo,2012-08-05,2012-08-05T00:00:00Z,H,2012-09-01,2012-09-01T23:59:59Z,H,DISCONTINUED,2012-09-02,,2012-08-05,2012-09-02,28,,,,,2012-08-05,1,Baseline,0,Recoded Item - 04,QR04,NEI VFQ-25,General 02,25,,25,0,0,Y,,,,,,,,,,,,,,,3,BASELINE,,,
166,CDISCPILOT01,01-701-1023,1023,701,USA,,2012-08-05,2012-09-02,2012-08-05,2012-09-01,2013-02-18,,2013-02-18,,,,,,,,,,23,NA,2012-07-22,-14,64,YEARS,18-64,M,WHITE,White,HISPANIC OR LATINO,Y,Placebo,Pbo,Placebo,Pbo,Placebo,Placebo,2012-08-05,2012-08-05T00:00:00Z,H,2012-09-01,2012-09-01T23:59:59Z,H,DISCONTINUED,2012-09-02,,2012-08-05,2012-09-02,28,,,,,2012-08-27,23,Week 2,2,Recoded Item - 04,QR04,NEI VFQ-25,General 02,25,,25,0,0,,Y,Y,,,,,,,,,,,,,4,WEEK 2,,,
167,CDISCPILOT01,01-701-1023,1023,701,USA,,2012-08-05,2012-09-02,2012-08-05,2012-09-01,2013-02-18,,2013-02-18,,,,,,,,,,24,NA,2012-07-22,-14,64,YEARS,18-64,M,WHITE,White,HISPANIC OR LATINO,Y,Placebo,Pbo,Placebo,Pbo,Placebo,Placebo,2012-08-05,2012-08-05T00:00:00Z,H,2012-09-01,2012-09-01T23:59:59Z,H,DISCONTINUED,2012-09-02,,2012-08-05,2012-09-02,28,,,,,2012-09-02,29,Week 4,4,Recoded Item - 04,QR04,NEI VFQ-25,General 02,0,,25,-25,-100,,,,,,,,,,,,,,,,5,WEEK 4,,,
168,CDISCPILOT01,01-701-1023,1023,701,USA,,2012-08-05,2012-09-02,2012-08-05,2012-09-01,2013-02-18,,2013-02-18,,,,,,,,,,25,NA,2012-07-22,-14,64,YEARS,18-64,M,WHITE,White,HISPANIC OR LATINO,Y,Placebo,Pbo,Placebo,Pbo,Placebo,Placebo,2012-08-05,2012-08-05T00:00:00Z,H,2012-09-01,2012-09-01T23:59:59Z,H,DISCONTINUED,2012-09-02,,2012-08-05,2012-09-02,28,,,,,2013-02-18,198,,,Recoded Item - 04,QR04,NEI VFQ-25,General 02,0,,25,-25,-100,,,,,,,,,,,,,,,,201,RETRIEVAL,,,
169,CDISCPILOT01,01-701-1023,1023,701,USA,,2012-08-05,2012-09-02,2012-08-05,2012-09-01,2013-02-18,,2013-02-18,,,,,,,,,,26,NA,2012-07-22,-14,64,YEARS,18-64,M,WHITE,White,HISPANIC OR LATINO,Y,Placebo,Pbo,Placebo,Pbo,Placebo,Placebo,2012-08-05,2012-08-05T00:00:00Z,H,2012-09-01,2012-09-01T23:59:59Z,H,DISCONTINUED,2012-09-02,,2012-08-05,2012-09-02,28,,,,,2012-07-22,-14,,,General Score 01,QSG01,NEI VFQ-25,Averaged Result,77.5,,10,67.5,675,,,,,,,,,,,,,,,,1,SCREENING 1,,,
170,CDISCPILOT01,01-701-1023,1023,701,USA,,2012-08-05,2012-09-02,2012-08-05,2012-09-01,2013-02-18,,2013-02-18,,,,,,,,,,27,NA,2012-07-22,-14,64,YEARS,18-64,M,WHITE,White,HISPANIC OR LATINO,Y,Placebo,Pbo,Placebo,Pbo,Placebo,Placebo,2012-08-05,2012-08-05T00:00:00Z,H,2012-09-01,2012-09-01T23:59:59Z,H,DISCONTINUED,2012-09-02,,2012-08-05,2012-09-02,28,,,,,2012-08-05,1,Baseline,0,General Score 01,QSG01,NEI VFQ-25,Averaged Result,10,,10,0,0,Y,,,,,,,,,,,,,,,3,BASELINE,,,
171,CDISCPILOT01,01-701-1023,1023,701,USA,,2012-08-05,2012-09-02,2012-08-05,2012-09-01,2013-02-18,,2013-02-18,,,,,,,,,,28,NA,2012-07-22,-14,64,YEARS,18-64,M,WHITE,White,HISPANIC OR LATINO,Y,Placebo,Pbo,Placebo,Pbo,Placebo,Placebo,2012-08-05,2012-08-05T00:00:00Z,H,2012-09-01,2012-09-01T23:59:59Z,H,DISCONTINUED,2012-09-02,,2012-08-05,2012-09-02,28,,,,,2012-08-27,23,Week 2,2,General Score 01,QSG01,NEI VFQ-25,Averaged Result,100,,10,90,900,,Y,Y,,,,,,,,,,,,,4,WEEK 2,,,
172,CDISCPILOT01,01-701-1023,1023,701,USA,,2012-08-05,2012-09-02,2012-08-05,2012-09-01,2013-02-18,,2013-02-18,,,,,,,,,,29,NA,2012-07-22,-14,64,YEARS,18-64,M,WHITE,White,HISPANIC OR LATINO,Y,Placebo,Pbo,Placebo,Pbo,Placebo,Placebo,2012-08-05,2012-08-05T00:00:00Z,H,2012-09-01,2012-09-01T23:59:59Z,H,DISCONTINUED,2012-09-02,,2012-08-05,2012-09-02,28,,,,,2012-09-02,29,Week 4,4,General Score 01,QSG01,NEI VFQ-25,Averaged Result,60,,10,50,500,,,,,,,,,,,,,,,,5,WEEK 4,,,
173,CDISCPILOT01,01-701-1023,1023,701,USA,,2012-08-05,2012-09-02,2012-08-05,2012-09-01,2013-02-18,,2013-02-18,,,,,,,,,,30,NA,2012-07-22,-14,64,YEARS,18-64,M,WHITE,White,HISPANIC OR LATINO,Y,Placebo,Pbo,Placebo,Pbo,Placebo,Placebo,2012-08-05,2012-08-05T00:00:00Z,H,2012-09-01,2012-09-01T23:59:59Z,H,DISCONTINUED,2012-09-02,,2012-08-05,2012-09-02,28,,,,,2013-02-18,198,,,General Score 01,QSG01,NEI VFQ-25,Averaged Result,42.5,,10,32.5,325,,,,,,,,,,,,,,,,201,RETRIEVAL,,,
174,CDISCPILOT01,01-701-1023,1023,701,USA,,2012-08-05,2012-09-02,2012-08-05,2012-09-01,2013-02-18,,2013-02-18,,,,,,,,,,31,NA,2012-07-22,-14,64,YEARS,18-64,M,WHITE,White,HISPANIC OR LATINO,Y,Placebo,Pbo,Placebo,Pbo,Placebo,Placebo,2012-08-05,2012-08-05T00:00:00Z,H,2012-09-01,2012-09-01T23:59:59Z,H,DISCONTINUED,2012-09-02,,2012-08-05,2012-09-02,28,,,,,2012-07-22,-14,,,General Score 02,QSG02,NEI VFQ-25,Averaged Result,37.5,,12.5,25,200,,,,,,,,,,,,,,,,1,SCREENING 1,,,
175,CDISCPILOT01,01-701-1023,1023,701,USA,,2012-08-05,2012-09-02,2012-08-05,2012-09-01,2013-02-18,,2013-02-18,,,,,,,,,,32,NA,2012-07-22,-14,64,YEARS,18-64,M,WHITE,White,HISPANIC OR LATINO,Y,Placebo,Pbo,Placebo,Pbo,Placebo,Placebo,2012-08-05,2012-08-05T00:00:00Z,H,2012-09-01,2012-09-01T23:59:59Z,H,DISCONTINUED,2012-09-02,,2012-08-05,2012-09-02,28,,,,,2012-08-05,1,Baseline,0,General Score 02,QSG02,NEI VFQ-25,Averaged Result,12.5,,12.5,0,0,Y,,,,,,,,,,,,,,,3,BASELINE,,,
176,CDISCPILOT01,01-701-1023,1023,701,USA,,2012-08-05,2012-09-02,2012-08-05,2012-09-01,2013-02-18,,2013-02-18,,,,,,,,,,33,NA,2012-07-22,-14,64,YEARS,18-64,M,WHITE,White,HISPANIC OR LATINO,Y,Placebo,Pbo,Placebo,Pbo,Placebo,Placebo,2012-08-05,2012-08-05T00:00:00Z,H,2012-09-01,2012-09-01T23:59:59Z,H,DISCONTINUED,2012-09-02,,2012-08-05,2012-09-02,28,,,,,2012-08-27,23,Week 2,2,General Score 02,QSG02,NEI VFQ-25,Averaged Result,12.5,,12.5,0,0,,Y,Y,,,,,,,,,,,,,4,WEEK 2,,,
177,CDISCPILOT01,01-701-1023,1023,701,USA,,2012-08-05,2012-09-02,2012-08-05,2012-09-01,2013-02-18,,2013-02-18,,,,,,,,,,34,NA,2012-07-22,-14,64,YEARS,18-64,M,WHITE,White,HISPANIC OR LATINO,Y,Placebo,Pbo,Placebo,Pbo,Placebo,Placebo,2012-08-05,2012-08-05T00:00:00Z,H,2012-09-01,2012-09-01T23:59:59Z,H,DISCONTINUED,2012-09-02,,2012-08-05,2012-09-02,28,,,,,2012-09-02,29,Week 4,4,General Score 02,QSG02,NEI VFQ-25,Averaged Result,25,,12.5,12.5,100,,,,,,,,,,,,,,,,5,WEEK 4,,,
178,CDISCPILOT01,01-701-1023,1023,701,USA,,2012-08-05,2012-09-02,2012-08-05,2012-09-01,2013-02-18,,2013-02-18,,,,,,,,,,35,NA,2012-07-22,-14,64,YEARS,18-64,M,WHITE,White,HISPANIC OR LATINO,Y,Placebo,Pbo,Placebo,Pbo,Placebo,Placebo,2012-08-05,2012-08-05T00:00:00Z,H,2012-09-01,2012-09-01T23:59:59Z,H,DISCONTINUED,2012-09-02,,2012-08-05,2012-09-02,28,,,,,2013-02-18,198,,,General Score 02,QSG02,NEI VFQ-25,Averaged Result,25,,12.5,12.5,100,,,,,,,,,,,,,,,,201,RETRIEVAL,,,
179,CDISCPILOT01,01-701-1023,1023,701,USA,QS,2012-08-05,2012-09-02,2012-08-05,2012-09-01,2013-02-18,,2013-02-18,,,,,,,,,,36,NA,2012-07-22,-14,64,YEARS,18-64,M,WHITE,White,HISPANIC OR LATINO,Y,Placebo,Pbo,Placebo,Pbo,Placebo,Placebo,2012-08-05,2012-08-05T00:00:00Z,H,2012-09-01,2012-09-01T23:59:59Z,H,DISCONTINUED,2012-09-02,,2012-08-05,2012-09-02,28,,,,,2012-07-22,-14,,,Overall Health,VFQ1,NEI VFQ-25,Original Response,2,GOOD,5,-3,-60,,,,64,VFQ1,Your Overall Health Is,NEI VFQ-25,Original Response,GOOD,,GOOD,2,,,,1,SCREENING 1,-7,2012-07-22,-14
180,CDISCPILOT01,01-701-1023,1023,701,USA,QS,2012-08-05,2012-09-02,2012-08-05,2012-09-01,2013-02-18,,2013-02-18,,,,,,,,,,37,NA,2012-07-22,-14,64,YEARS,18-64,M,WHITE,White,HISPANIC OR LATINO,Y,Placebo,Pbo,Placebo,Pbo,Placebo,Placebo,2012-08-05,2012-08-05T00:00:00Z,H,2012-09-01,2012-09-01T23:59:59Z,H,DISCONTINUED,2012-09-02,,2012-08-05,2012-09-02,28,,,,,2012-08-05,1,Baseline,0,Overall Health,VFQ1,NEI VFQ-25,Original Response,5,VERY POOR,5,0,0,Y,,,25,VFQ1,Your Overall Health Is,NEI VFQ-25,Original Response,VERY POOR,,VERY POOR,5,,Y,,3,BASELINE,1,2012-08-05,1
181,CDISCPILOT01,01-701-1023,1023,701,USA,QS,2012-08-05,2012-09-02,2012-08-05,2012-09-01,2013-02-18,,2013-02-18,,,,,,,,,,38,NA,2012-07-22,-14,64,YEARS,18-64,M,WHITE,White,HISPANIC OR LATINO,Y,Placebo,Pbo,Placebo,Pbo,Placebo,Placebo,2012-08-05,2012-08-05T00:00:00Z,H,2012-09-01,2012-09-01T23:59:59Z,H,DISCONTINUED,2012-09-02,,2012-08-05,2012-09-02,28,,,,,2012-08-27,23,Week 2,2,Overall Health,VFQ1,NEI VFQ-25,Original Response,1,FAIR,5,-4,-80,,Y,Y,89,VFQ1,Your Overall Health Is,NEI VFQ-25,Original Response,FAIR,,FAIR,1,,,,4,WEEK 2,14,2012-08-27,23
182,CDISCPILOT01,01-701-1023,1023,701,USA,QS,2012-08-05,2012-09-02,2012-08-05,2012-09-01,2013-02-18,,2013-02-18,,,,,,,,,,39,NA,2012-07-22,-14,64,YEARS,18-64,M,WHITE,White,HISPANIC OR LATINO,Y,Placebo,Pbo,Placebo,Pbo,Placebo,Placebo,2012-08-05,2012-08-05T00:00:00Z,H,2012-09-01,2012-09-01T23:59:59Z,H,DISCONTINUED,2012-09-02,,2012-08-05,2012-09-02,28,,,,,2012-09-02,29,Week 4,4,Overall Health,VFQ1,NEI VFQ-25,Original Response,1,FAIR,5,-4,-80,,,,144,VFQ1,Your Overall Health Is,NEI VFQ-25,Original Response,FAIR,,FAIR,1,,,,5,WEEK 4,28,2012-09-02,29
183,CDISCPILOT01,01-701-1023,1023,701,USA,QS,2012-08-05,2012-09-02,2012-08-05,2012-09-01,2013-02-18,,2013-02-18,,,,,,,,,,40,NA,2012-07-22,-14,64,YEARS,18-64,M,WHITE,White,HISPANIC OR LATINO,Y,Placebo,Pbo,Placebo,Pbo,Placebo,Placebo,2012-08-05,2012-08-05T00:00:00Z,H,2012-09-01,2012-09-01T23:59:59Z,H,DISCONTINUED,2012-09-02,,2012-08-05,2012-09-02,28,,,,,2013-02-18,198,,,Overall Health,VFQ1,NEI VFQ-25,Original Response,4,VERY GOOD,5,-1,-20,,,,53,VFQ1,Your Overall Health Is,NEI VFQ-25,Original Response,VERY GOOD,,VERY GOOD,4,,,,201,RETRIEVAL,168,2013-02-18,198
184,CDISCPILOT01,01-701-1023,1023,701,USA,QS,2012-08-05,2012-09-02,2012-08-05,2012-09-01,2013-02-18,,2013-02-18,,,,,,,,,,41,NA,2012-07-22,-14,64,YEARS,18-64,M,WHITE,White,HISPANIC OR LATINO,Y,Placebo,Pbo,Placebo,Pbo,Placebo,Placebo,2012-08-05,2012-08-05T00:00:00Z,H,2012-09-01,2012-09-01T23:59:59Z,H,DISCONTINUED,2012-09-02,,2012-08-05,2012-09-02,28,,,,,2012-07-22,-14,,,Eyesight in Both Eyes,VFQ2,NEI VFQ-25,Original Response,2,GOOD,5,-3,-60,,,,77,VFQ2,Eyesight Using Both Eyes Is,NEI VFQ-25,Original Response,GOOD,,GOOD,2,,,,1,SCREENING 1,-7,2012-07-22,-14
185,CDISCPILOT01,01-701-1023,1023,701,USA,QS,2012-08-05,2012-09-02,2012-08-05,2012-09-01,2013-02-18,,2013-02-18,,,,,,,,,,42,NA,2012-07-22,-14,64,YEARS,18-64,M,WHITE,White,HISPANIC OR LATINO,Y,Placebo,Pbo,Placebo,Pbo,Placebo,Placebo,2012-08-05,2012-08-05T00:00:00Z,H,2012-09-01,2012-09-01T23:59:59Z,H,DISCONTINUED,2012-09-02,,2012-08-05,2012-09-02,28,,,,,2012-08-05,1,Baseline,0,Eyesight in Both Eyes,VFQ2,NEI VFQ-25,Original Response,5,VERY POOR,5,0,0,Y,,,17,VFQ2,Eyesight Using Both Eyes Is,NEI VFQ-25,Original Response,VERY POOR,,VERY POOR,5,,Y,,3,BASELINE,1,2012-08-05,1
186,CDISCPILOT01,01-701-1023,1023,701,USA,QS,2012-08-05,2012-09-02,2012-08-05,2012-09-01,2013-02-18,,2013-02-18,,,,,,,,,,43,NA,2012-07-22,-14,64,YEARS,18-64,M,WHITE,White,HISPANIC OR LATINO,Y,Placebo,Pbo,Placebo,Pbo,Placebo,Placebo,2012-08-05,2012-08-05T00:00:00Z,H,2012-09-01,2012-09-01T23:59:59Z,H,DISCONTINUED,2012-09-02,,2012-08-05,2012-09-02,28,,,,,2012-08-27,23,Week 2,2,Eyesight in Both Eyes,VFQ2,NEI VFQ-25,Original Response,1,FAIR,5,-4,-80,,Y,Y,100,VFQ2,Eyesight Using Both Eyes Is,NEI VFQ-25,Original Response,FAIR,,FAIR,1,,,,4,WEEK 2,14,2012-08-27,23
187,CDISCPILOT01,01-701-1023,1023,701,USA,QS,2012-08-05,2012-09-02,2012-08-05,2012-09-01,2013-02-18,,2013-02-18,,,,,,,,,,44,NA,2012-07-22,-14,64,YEARS,18-64,M,WHITE,White,HISPANIC OR LATINO,Y,Placebo,Pbo,Placebo,Pbo,Placebo,Placebo,2012-08-05,2012-08-05T00:00:00Z,H,2012-09-01,2012-09-01T23:59:59Z,H,DISCONTINUED,2012-09-02,,2012-08-05,2012-09-02,28,,,,,2012-09-02,29,Week 4,4,Eyesight in Both Eyes,VFQ2,NEI VFQ-25,Original Response,5,VERY POOR,5,0,0,,,,131,VFQ2,Eyesight Using Both Eyes Is,NEI VFQ-25,Original Response,VERY POOR,,VERY POOR,5,,,,5,WEEK 4,28,2012-09-02,29
188,CDISCPILOT01,01-701-1023,1023,701,USA,QS,2012-08-05,2012-09-02,2012-08-05,2012-09-01,2013-02-18,,2013-02-18,,,,,,,,,,45,NA,2012-07-22,-14,64,YEARS,18-64,M,WHITE,White,HISPANIC OR LATINO,Y,Placebo,Pbo,Placebo,Pbo,Placebo,Placebo,2012-08-05,2012-08-05T00:00:00Z,H,2012-09-01,2012-09-01T23:59:59Z,H,DISCONTINUED,2012-09-02,,2012-08-05,2012-09-02,28,,,,,2013-02-18,198,,,Eyesight in Both Eyes,VFQ2,NEI VFQ-25,Original Response,3,POOR,5,-2,-40,,,,39,VFQ2,Eyesight Using Both Eyes Is,NEI VFQ-25,Original Response,POOR,,POOR,3,,,,201,RETRIEVAL,168,2013-02-18,198
189,CDISCPILOT01,01-701-1023,1023,701,USA,QS,2012-08-05,2012-09-02,2012-08-05,2012-09-01,2013-02-18,,2013-02-18,,,,,,,,,,46,NA,2012-07-22,-14,64,YEARS,18-64,M,WHITE,White,HISPANIC OR LATINO,Y,Placebo,Pbo,Placebo,Pbo,Placebo,Placebo,2012-08-05,2012-08-05T00:00:00Z,H,2012-09-01,2012-09-01T23:59:59Z,H,DISCONTINUED,2012-09-02,,2012-08-05,2012-09-02,28,,,,,2012-07-22,-14,,,Worry About Eyesight,VFQ3,NEI VFQ-25,Original Response,3,RARELY,1,2,200,,,,76,VFQ3,How Often You Worry About Eyesight,NEI VFQ-25,Original Response,RARELY,,RARELY,3,,,,1,SCREENING 1,-7,2012-07-22,-14
190,CDISCPILOT01,01-701-1023,1023,701,USA,QS,2012-08-05,2012-09-02,2012-08-05,2012-09-01,2013-02-18,,2013-02-18,,,,,,,,,,47,NA,2012-07-22,-14,64,YEARS,18-64,M,WHITE,White,HISPANIC OR LATINO,Y,Placebo,Pbo,Placebo,Pbo,Placebo,Placebo,2012-08-05,2012-08-05T00:00:00Z,H,2012-09-01,2012-09-01T23:59:59Z,H,DISCONTINUED,2012-09-02,,2012-08-05,2012-09-02,28,,,,,2012-08-05,1,Baseline,0,Worry About Eyesight,VFQ3,NEI VFQ-25,Original Response,1,FREQUENTLY,1,0,0,Y,,,26,VFQ3,How Often You Worry About Eyesight,NEI VFQ-25,Original Response,FREQUENTLY,,FREQUENTLY,1,,Y,,3,BASELINE,1,2012-08-05,1
191,CDISCPILOT01,01-701-1023,1023,701,USA,QS,2012-08-05,2012-09-02,2012-08-05,2012-09-01,2013-02-18,,2013-02-18,,,,,,,,,,48,NA,2012-07-22,-14,64,YEARS,18-64,M,WHITE,White,HISPANIC OR LATINO,Y,Placebo,Pbo,Placebo,Pbo,Placebo,Placebo,2012-08-05,2012-08-05T00:00:00Z,H,2012-09-01,2012-09-01T23:59:59Z,H,DISCONTINUED,2012-09-02,,2012-08-05,2012-09-02,28,,,,,2012-08-27,23,Week 2,2,Worry About Eyesight,VFQ3,NEI VFQ-25,Original Response,1,FREQUENTLY,1,0,0,,Y,Y,99,VFQ3,How Often You Worry About Eyesight,NEI VFQ-25,Original Response,FREQUENTLY,,FREQUENTLY,1,,,,4,WEEK 2,14,2012-08-27,23
192,CDISCPILOT01,01-701-1023,1023,701,USA,QS,2012-08-05,2012-09-02,2012-08-05,2012-09-01,2013-02-18,,2013-02-18,,,,,,,,,,49,NA,2012-07-22,-14,64,YEARS,18-64,M,WHITE,White,HISPANIC OR LATINO,Y,Placebo,Pbo,Placebo,Pbo,Placebo,Placebo,2012-08-05,2012-08-05T00:00:00Z,H,2012-09-01,2012-09-01T23:59:59Z,H,DISCONTINUED,2012-09-02,,2012-08-05,2012-09-02,28,,,,,2012-09-02,29,Week 4,4,Worry About Eyesight,VFQ3,NEI VFQ-25,Original Response,3,RARELY,1,2,200,,,,136,VFQ3,How Often You Worry About Eyesight,NEI VFQ-25,Original Response,RARELY,,RARELY,3,,,,5,WEEK 4,28,2012-09-02,29
193,CDISCPILOT01,01-701-1023,1023,701,USA,QS,2012-08-05,2012-09-02,2012-08-05,2012-09-01,2013-02-18,,2013-02-18,,,,,,,,,,50,NA,2012-07-22,-14,64,YEARS,18-64,M,WHITE,White,HISPANIC OR LATINO,Y,Placebo,Pbo,Placebo,Pbo,Placebo,Placebo,2012-08-05,2012-08-05T00:00:00Z,H,2012-09-01,2012-09-01T23:59:59Z,H,DISCONTINUED,2012-09-02,,2012-08-05,2012-09-02,28,,,,,2013-02-18,198,,,Worry About Eyesight,VFQ3,NEI VFQ-25,Original Response,3,RARELY,1,2,200,,,,42,VFQ3,How Often You Worry About Eyesight,NEI VFQ-25,Original Response,RARELY,,RARELY,3,,,,201,RETRIEVAL,168,2013-02-18,198
194,CDISCPILOT01,01-701-1023,1023,701,USA,QS,2012-08-05,2012-09-02,2012-08-05,2012-09-01,2013-02-18,,2013-02-18,,,,,,,,,,51,NA,2012-07-22,-14,64,YEARS,18-64,M,WHITE,White,HISPANIC OR LATINO,Y,Placebo,Pbo,Placebo,Pbo,Placebo,Placebo,2012-08-05,2012-08-05T00:00:00Z,H,2012-09-01,2012-09-01T23:59:59Z,H,DISCONTINUED,2012-09-02,,2012-08-05,2012-09-02,28,,,,,2012-07-22,-14,,,Pain in and Around Eyes,VFQ4,NEI VFQ-25,Original Response,2,NEVER,2,0,0,,,,71,VFQ4,How Often Pain in and Around Eyes,NEI VFQ-25,Original Response,NEVER,,NEVER,2,,,,1,SCREENING 1,-7,2012-07-22,-14
195,CDISCPILOT01,01-701-1023,1023,701,USA,QS,2012-08-05,2012-09-02,2012-08-05,2012-09-01,2013-02-18,,2013-02-18,,,,,,,,,,52,NA,2012-07-22,-14,64,YEARS,18-64,M,WHITE,White,HISPANIC OR LATINO,Y,Placebo,Pbo,Placebo,Pbo,Placebo,Placebo,2012-08-05,2012-08-05T00:00:00Z,H,2012-09-01,2012-09-01T23:59:59Z,H,DISCONTINUED,2012-09-02,,2012-08-05,2012-09-02,28,,,,,2012-08-05,1,Baseline,0,Pain in and Around Eyes,VFQ4,NEI VFQ-25,Original Response,2,NEVER,2,0,0,Y,,,23,VFQ4,How Often Pain in and Around Eyes,NEI VFQ-25,Original Response,NEVER,,NEVER,2,,Y,,3,BASELINE,1,2012-08-05,1
196,CDISCPILOT01,01-701-1023,1023,701,USA,QS,2012-08-05,2012-09-02,2012-08-05,2012-09-01,2013-02-18,,2013-02-18,,,,,,,,,,53,NA,2012-07-22,-14,64,YEARS,18-64,M,WHITE,White,HISPANIC OR LATINO,Y,Placebo,Pbo,Placebo,Pbo,Placebo,Placebo,2012-08-05,2012-08-05T00:00:00Z,H,2012-09-01,2012-09-01T23:59:59Z,H,DISCONTINUED,2012-09-02,,2012-08-05,2012-09-02,28,,,,,2012-08-27,23,Week 2,2,Pain in and Around Eyes,VFQ4,NEI VFQ-25,Original Response,2,NEVER,2,0,0,,Y,Y,102,VFQ4,How Often Pain in and Around Eyes,NEI VFQ-25,Original Response,NEVER,,NEVER,2,,,,4,WEEK 2,14,2012-08-27,23
197,CDISCPILOT01,01-701-1023,1023,701,USA,QS,2012-08-05,2012-09-02,2012-08-05,2012-09-01,2013-02-18,,2013-02-18,,,,,,,,,,54,NA,2012-07-22,-14,64,YEARS,18-64,M,WHITE,White,HISPANIC OR LATINO,Y,Placebo,Pbo,Placebo,Pbo,Placebo,Placebo,2012-08-05,2012-08-05T00:00:00Z,H,2012-09-01,2012-09-01T23:59:59Z,H,DISCONTINUED,2012-09-02,,2012-08-05,2012-09-02,28,,,,,2012-09-02,29,Week 4,4,Pain in and Around Eyes,VFQ4,NEI VFQ-25,Original Response,1,FREQUENTLY,2,-1,-50,,,,137,VFQ4,How Often Pain in and Around Eyes,NEI VFQ-25,Original Response,FREQUENTLY,,FREQUENTLY,1,,,,5,WEEK 4,28,2012-09-02,29
198,CDISCPILOT01,01-701-1023,1023,701,USA,QS,2012-08-05,2012-09-02,2012-08-05,2012-09-01,2013-02-18,,2013-02-18,,,,,,,,,,55,NA,2012-07-22,-14,64,YEARS,18-64,M,WHITE,White,HISPANIC OR LATINO,Y,Placebo,Pbo,Placebo,Pbo,Placebo,Placebo,2012-08-05,2012-08-05T00:00:00Z,H,2012-09-01,2012-09-01T23:59:59Z,H,DISCONTINUED,2012-09-02,,2012-08-05,2012-09-02,28,,,,,2013-02-18,198,,,Pain in and Around Eyes,VFQ4,NEI VFQ-25,Original Response,1,FREQUENTLY,2,-1,-50,,,,35,VFQ4,How Often Pain in and Around Eyes,NEI VFQ-25,Original Response,FREQUENTLY,,FREQUENTLY,1,,,,201,RETRIEVAL,168,2013-02-18,198
199,CDISCPILOT01,01-701-1028,1028,701,USA,,2013-07-19,2014-01-14,2013-07-19,2014-01-14,2014-01-14T11:10,,,,,,,,,,,,1,NA,2013-07-11,-8,71,YEARS,>64,M,WHITE,White,NOT HISPANIC OR LATINO,Y,Xanomeline High Dose,Xan_Hi,Xanomeline High Dose,Xan_Hi,Xanomeline High Dose,Xanomeline High Dose,2013-07-19,2013-07-19T00:00:00Z,H,2014-01-14,2014-01-14T23:59:59Z,H,COMPLETED,2014-01-14,,2013-07-19,2014-01-14,180,,,,,2013-07-11,-8,,,Composite Score,QBCSCORE,NEI VFQ-25,Averaged Result,102.5,,72.5,30,41.37931034482759,,,,,,,,,,,,,,,,1,SCREENING 1,,,
200,CDISCPILOT01,01-701-1028,1028,701,USA,,2013-07-19,2014-01-14,2013-07-19,2014-01-14,2014-01-14T11:10,,,,,,,,,,,,2,NA,2013-07-11,-8,71,YEARS,>64,M,WHITE,White,NOT HISPANIC OR LATINO,Y,Xanomeline High Dose,Xan_Hi,Xanomeline High Dose,Xan_Hi,Xanomeline High Dose,Xanomeline High Dose,2013-07-19,2013-07-19T00:00:00Z,H,2014-01-14,2014-01-14T23:59:59Z,H,COMPLETED,2014-01-14,,2013-07-19,2014-01-14,180,,,,,2013-07-19,1,Baseline,0,Composite Score,QBCSCORE,NEI VFQ-25,Averaged Result,72.5,,72.5,0,0,Y,,,,,,,,,,,,,,,3,BASELINE,,,
201,CDISCPILOT01,01-701-1028,1028,701,USA,,2013-07-19,2014-01-14,2013-07-19,2014-01-14,2014-01-14T11:10,,,,,,,,,,,,3,NA,2013-07-11,-8,71,YEARS,>64,M,WHITE,White,NOT HISPANIC OR LATINO,Y,Xanomeline High Dose,Xan_Hi,Xanomeline High Dose,Xan_Hi,Xanomeline High Dose,Xanomeline High Dose,2013-07-19,2013-07-19T00:00:00Z,H,2014-01-14,2014-01-14T23:59:59Z,H,COMPLETED,2014-01-14,,2013-07-19,2014-01-14,180,,,,,2013-08-01,14,Week 2,2,Composite Score,QBCSCORE,NEI VFQ-25,Averaged Result,62.5,,72.5,-10,-13.793103448275861,,Y,Y,,,,,,,,,,,,,4,WEEK 2,,,
202,CDISCPILOT01,01-701-1028,1028,701,USA,,2013-07-19,2014-01-14,2013-07-19,2014-01-14,2014-01-14T11:10,,,,,,,,,,,,4,NA,2013-07-11,-8,71,YEARS,>64,M,WHITE,White,NOT HISPANIC OR LATINO,Y,Xanomeline High Dose,Xan_Hi,Xanomeline High Dose,Xan_Hi,Xanomeline High Dose,Xanomeline High Dose,2013-07-19,2013-07-19T00:00:00Z,H,2014-01-14,2014-01-14T23:59:59Z,H,COMPLETED,2014-01-14,,2013-07-19,2014-01-14,180,,,,,2013-08-14,27,Week 4,4,Composite Score,QBCSCORE,NEI VFQ-25,Averaged Result,115,,72.5,42.5,58.620689655172406,,Y,Y,,,,,,,,,,,,,5,WEEK 4,,,
203,CDISCPILOT01,01-701-1028,1028,701,USA,,2013-07-19,2014-01-14,2013-07-19,2014-01-14,2014-01-14T11:10,,,,,,,,,,,,5,NA,2013-07-11,-8,71,YEARS,>64,M,WHITE,White,NOT HISPANIC OR LATINO,Y,Xanomeline High Dose,Xan_Hi,Xanomeline High Dose,Xan_Hi,Xanomeline High Dose,Xanomeline High Dose,2013-07-19,2013-07-19T00:00:00Z,H,2014-01-14,2014-01-14T23:59:59Z,H,COMPLETED,2014-01-14,,2013-07-19,2014-01-14,180,,,,,2013-08-29,42,Week 6,6,Composite Score,QBCSCORE,NEI VFQ-25,Averaged Result,120,,72.5,47.5,65.51724137931035,,Y,Y,,,,,,,,,,,,,7,WEEK 6,,,
204,CDISCPILOT01,01-701-1028,1028,701,USA,,2013-07-19,2014-01-14,2013-07-19,2014-01-14,2014-01-14T11:10,,,,,,,,,,,,6,NA,2013-07-11,-8,71,YEARS,>64,M,WHITE,White,NOT HISPANIC OR LATINO,Y,Xanomeline High Dose,Xan_Hi,Xanomeline High Dose,Xan_Hi,Xanomeline High Dose,Xanomeline High Dose,2013-07-19,2013-07-19T00:00:00Z,H,2014-01-14,2014-01-14T23:59:59Z,H,COMPLETED,2014-01-14,,2013-07-19,2014-01-14,180,,,,,2013-09-10,54,Week 8,8,Composite Score,QBCSCORE,NEI VFQ-25,Averaged Result,92.5,,72.5,20,27.586206896551722,,Y,Y,,,,,,,,,,,,,8,WEEK 8,,,
205,CDISCPILOT01,01-701-1028,1028,701,USA,,2013-07-19,2014-01-14,2013-07-19,2014-01-14,2014-01-14T11:10,,,,,,,,,,,,7,NA,2013-07-11,-8,71,YEARS,>64,M,WHITE,White,NOT HISPANIC OR LATINO,Y,Xanomeline High Dose,Xan_Hi,Xanomeline High Dose,Xan_Hi,Xanomeline High Dose,Xanomeline High Dose,2013-07-19,2013-07-19T00:00:00Z,H,2014-01-14,2014-01-14T23:59:59Z,H,COMPLETED,2014-01-14,,2013-07-19,2014-01-14,180,,,,,2013-09-24,68,Week 10 (T),10,Composite Score,QBCSCORE,NEI VFQ-25,Averaged Result,47.5,,72.5,-25,-34.48275862068966,,Y,Y,,,,,,,,,,,,,8.1,WEEK 10 (T),,,
206,CDISCPILOT01,01-701-1028,1028,701,USA,,2013-07-19,2014-01-14,2013-07-19,2014-01-14,2014-01-14T11:10,,,,,,,,,,,,8,NA,2013-07-11,-8,71,YEARS,>64,M,WHITE,White,NOT HISPANIC OR LATINO,Y,Xanomeline High Dose,Xan_Hi,Xanomeline High Dose,Xan_Hi,Xanomeline High Dose,Xanomeline High Dose,2013-07-19,2013-07-19T00:00:00Z,H,2014-01-14,2014-01-14T23:59:59Z,H,COMPLETED,2014-01-14,,2013-07-19,2014-01-14,180,,,,,2013-10-09,83,Week 12,12,Composite Score,QBCSCORE,NEI VFQ-25,Averaged Result,90,,72.5,17.5,24.137931034482758,,Y,Y,,,,,,,,,,,,,9,WEEK 12,,,
207,CDISCPILOT01,01-701-1028,1028,701,USA,,2013-07-19,2014-01-14,2013-07-19,2014-01-14,2014-01-14T11:10,,,,,,,,,,,,9,NA,2013-07-11,-8,71,YEARS,>64,M,WHITE,White,NOT HISPANIC OR LATINO,Y,Xanomeline High Dose,Xan_Hi,Xanomeline High Dose,Xan_Hi,Xanomeline High Dose,Xanomeline High Dose,2013-07-19,2013-07-19T00:00:00Z,H,2014-01-14,2014-01-14T23:59:59Z,H,COMPLETED,2014-01-14,,2013-07-19,2014-01-14,180,,,,,2013-10-23,97,Week 14 (T),14,Composite Score,QBCSCORE,NEI VFQ-25,Averaged Result,72.5,,72.5,0,0,,Y,Y,,,,,,,,,,,,,9.1,WEEK 14 (T),,,
208,CDISCPILOT01,01-701-1028,1028,701,USA,,2013-07-19,2014-01-14,2013-07-19,2014-01-14,2014-01-14T11:10,,,,,,,,,,,,10,NA,2013-07-11,-8,71,YEARS,>64,M,WHITE,White,NOT HISPANIC OR LATINO,Y,Xanomeline High Dose,Xan_Hi,Xanomeline High Dose,Xan_Hi,Xanomeline High Dose,Xanomeline High Dose,2013-07-19,2013-07-19T00:00:00Z,H,2014-01-14,2014-01-14T23:59:59Z,H,COMPLETED,2014-01-14,,2013-07-19,2014-01-14,180,,,,,2013-11-06,111,Week 16,16,Composite Score,QBCSCORE,NEI VFQ-25,Averaged Result,95,,72.5,22.5,31.03448275862069,,Y,Y,,,,,,,,,,,,,10,WEEK 16,,,
209,CDISCPILOT01,01-701-1028,1028,701,USA,,2013-07-19,2014-01-14,2013-07-19,2014-01-14,2014-01-14T11:10,,,,,,,,,,,,11,NA,2013-07-11,-8,71,YEARS,>64,M,WHITE,White,NOT HISPANIC OR LATINO,Y,Xanomeline High Dose,Xan_Hi,Xanomeline High Dose,Xan_Hi,Xanomeline High Dose,Xanomeline High Dose,2013-07-19,2013-07-19T00:00:00Z,H,2014-01-14,2014-01-14T23:59:59Z,H,COMPLETED,2014-01-14,,2013-07-19,2014-01-14,180,,,,,2013-11-20,125,Week 18 (T),18,Composite Score,QBCSCORE,NEI VFQ-25,Averaged Result,92.5,,72.5,20,27.586206896551722,,Y,Y,,,,,,,,,,,,,10.1,WEEK 18 (T),,,
210,CDISCPILOT01,01-701-1028,1028,701,USA,,2013-07-19,2014-01-14,2013-07-19,2014-01-14,2014-01-14T11:10,,,,,,,,,,,,12,NA,2013-07-11,-8,71,YEARS,>64,M,WHITE,White,NOT HISPANIC OR LATINO,Y,Xanomeline High Dose,Xan_Hi,Xanomeline High Dose,Xan_Hi,Xanomeline High Dose,Xanomeline High Dose,2013-07-19,2013-07-19T00:00:00Z,H,2014-01-14,2014-01-14T23:59:59Z,H,COMPLETED,2014-01-14,,2013-07-19,2014-01-14,180,,,,,2013-12-04,139,Week 20,20,Composite Score,QBCSCORE,NEI VFQ-25,Averaged Result,95,,72.5,22.5,31.03448275862069,,Y,Y,,,,,,,,,,,,,11,WEEK 20,,,
211,CDISCPILOT01,01-701-1028,1028,701,USA,,2013-07-19,2014-01-14,2013-07-19,2014-01-14,2014-01-14T11:10,,,,,,,,,,,,13,NA,2013-07-11,-8,71,YEARS,>64,M,WHITE,White,NOT HISPANIC OR LATINO,Y,Xanomeline High Dose,Xan_Hi,Xanomeline High Dose,Xan_Hi,Xanomeline High Dose,Xanomeline High Dose,2013-07-19,2013-07-19T00:00:00Z,H,2014-01-14,2014-01-14T23:59:59Z,H,COMPLETED,2014-01-14,,2013-07-19,2014-01-14,180,,,,,2013-12-18,153,Week 22 (T),22,Composite Score,QBCSCORE,NEI VFQ-25,Averaged Result,92.5,,72.5,20,27.586206896551722,,Y,Y,,,,,,,,,,,,,11.1,WEEK 22 (T),,,
212,CDISCPILOT01,01-701-1028,1028,701,USA,,2013-07-19,2014-01-14,2013-07-19,2014-01-14,2014-01-14T11:10,,,,,,,,,,,,14,NA,2013-07-11,-8,71,YEARS,>64,M,WHITE,White,NOT HISPANIC OR LATINO,Y,Xanomeline High Dose,Xan_Hi,Xanomeline High Dose,Xan_Hi,Xanomeline High Dose,Xanomeline High Dose,2013-07-19,2013-07-19T00:00:00Z,H,2014-01-14,2014-01-14T23:59:59Z,H,COMPLETED,2014-01-14,,2013-07-19,2014-01-14,180,,,,,2014-01-06,172,Week 24,24,Composite Score,QBCSCORE,NEI VFQ-25,Averaged Result,115,,72.5,42.5,58.620689655172406,,Y,Y,,,,,,,,,,,,,12,WEEK 24,,,
213,CDISCPILOT01,01-701-1028,1028,701,USA,,2013-07-19,2014-01-14,2013-07-19,2014-01-14,2014-01-14T11:10,,,,,,,,,,,,15,NA,2013-07-11,-8,71,YEARS,>64,M,WHITE,White,NOT HISPANIC OR LATINO,Y,Xanomeline High Dose,Xan_Hi,Xanomeline High Dose,Xan_Hi,Xanomeline High Dose,Xanomeline High Dose,2013-07-19,2013-07-19T00:00:00Z,H,2014-01-14,2014-01-14T23:59:59Z,H,COMPLETED,2014-01-14,,2013-07-19,2014-01-14,180,,,,,2014-01-14,180,Week 26,26,Composite Score,QBCSCORE,NEI VFQ-25,Averaged Result,140,,72.5,67.5,93.10344827586206,,Y,Y,,,,,,,,,,,,,13,WEEK 26,,,
214,CDISCPILOT01,01-701-1028,1028,701,USA,,2013-07-19,2014-01-14,2013-07-19,2014-01-14,2014-01-14T11:10,,,,,,,,,,,,16,NA,2013-07-11,-8,71,YEARS,>64,M,WHITE,White,NOT HISPANIC OR LATINO,Y,Xanomeline High Dose,Xan_Hi,Xanomeline High Dose,Xan_Hi,Xanomeline High Dose,Xanomeline High Dose,2013-07-19,2013-07-19T00:00:00Z,H,2014-01-14,2014-01-14T23:59:59Z,H,COMPLETED,2014-01-14,,2013-07-19,2014-01-14,180,,,,,2013-07-11,-8,,,Recoded Item - 01,QR01,NEI VFQ-25,General 01,75,,75,0,0,,,,,,,,,,,,,,,,1,SCREENING 1,,,
215,CDISCPILOT01,01-701-1028,1028,701,USA,,2013-07-19,2014-01-14,2013-07-19,2014-01-14,2014-01-14T11:10,,,,,,,,,,,,17,NA,2013-07-11,-8,71,YEARS,>64,M,WHITE,White,NOT HISPANIC OR LATINO,Y,Xanomeline High Dose,Xan_Hi,Xanomeline High Dose,Xan_Hi,Xanomeline High Dose,Xanomeline High Dose,2013-07-19,2013-07-19T00:00:00Z,H,2014-01-14,2014-01-14T23:59:59Z,H,COMPLETED,2014-01-14,,2013-07-19,2014-01-14,180,,,,,2013-07-19,1,Baseline,0,Recoded Item - 01,QR01,NEI VFQ-25,General 01,75,,75,0,0,Y,,,,,,,,,,,,,,,3,BASELINE,,,
216,CDISCPILOT01,01-701-1028,1028,701,USA,,2013-07-19,2014-01-14,2013-07-19,2014-01-14,2014-01-14T11:10,,,,,,,,,,,,18,NA,2013-07-11,-8,71,YEARS,>64,M,WHITE,White,NOT HISPANIC OR LATINO,Y,Xanomeline High Dose,Xan_Hi,Xanomeline High Dose,Xan_Hi,Xanomeline High Dose,Xanomeline High Dose,2013-07-19,2013-07-19T00:00:00Z,H,2014-01-14,2014-01-14T23:59:59Z,H,COMPLETED,2014-01-14,,2013-07-19,2014-01-14,180,,,,,2013-08-01,14,Week 2,2,Recoded Item - 01,QR01,NEI VFQ-25,General 01,0,,75,-75,-100,,Y,Y,,,,,,,,,,,,,4,WEEK 2,,,
217,CDISCPILOT01,01-701-1028,1028,701,USA,,2013-07-19,2014-01-14,2013-07-19,2014-01-14,2014-01-14T11:10,,,,,,,,,,,,19,NA,2013-07-11,-8,71,YEARS,>64,M,WHITE,White,NOT HISPANIC OR LATINO,Y,Xanomeline High Dose,Xan_Hi,Xanomeline High Dose,Xan_Hi,Xanomeline High Dose,Xanomeline High Dose,2013-07-19,2013-07-19T00:00:00Z,H,2014-01-14,2014-01-14T23:59:59Z,H,COMPLETED,2014-01-14,,2013-07-19,2014-01-14,180,,,,,2013-08-14,27,Week 4,4,Recoded Item - 01,QR01,NEI VFQ-25,General 01,75,,75,0,0,,Y,Y,,,,,,,,,,,,,5,WEEK 4,,,
218,CDISCPILOT01,01-701-1028,1028,701,USA,,2013-07-19,2014-01-14,2013-07-19,2014-01-14,2014-01-14T11:10,,,,,,,,,,,,20,NA,2013-07-11,-8,71,YEARS,>64,M,WHITE,White,NOT HISPANIC OR LATINO,Y,Xanomeline High Dose,Xan_Hi,Xanomeline High Dose,Xan_Hi,Xanomeline High Dose,Xanomeline High Dose,2013-07-19,2013-07-19T00:00:00Z,H,2014-01-14,2014-01-14T23:59:59Z,H,COMPLETED,2014-01-14,,2013-07-19,2014-01-14,180,,,,,2013-08-29,42,Week 6,6,Recoded Item - 01,QR01,NEI VFQ-25,General 01,75,,75,0,0,,Y,Y,,,,,,,,,,,,,7,WEEK 6,,,
219,CDISCPILOT01,01-701-1028,1028,701,USA,,2013-07-19,2014-01-14,2013-07-19,2014-01-14,2014-01-14T11:10,,,,,,,,,,,,21,NA,2013-07-11,-8,71,YEARS,>64,M,WHITE,White,NOT HISPANIC OR LATINO,Y,Xanomeline High Dose,Xan_Hi,Xanomeline High Dose,Xan_Hi,Xanomeline High Dose,Xanomeline High Dose,2013-07-19,2013-07-19T00:00:00Z,H,2014-01-14,2014-01-14T23:59:59Z,H,COMPLETED,2014-01-14,,2013-07-19,2014-01-14,180,,,,,2013-09-10,54,Week 8,8,Recoded Item - 01,QR01,NEI VFQ-25,General 01,25,,75,-50,-66.66666666666666,,Y,Y,,,,,,,,,,,,,8,WEEK 8,,,
220,CDISCPILOT01,01-701-1028,1028,701,USA,,2013-07-19,2014-01-14,2013-07-19,2014-01-14,2014-01-14T11:10,,,,,,,,,,,,22,NA,2013-07-11,-8,71,YEARS,>64,M,WHITE,White,NOT HISPANIC OR LATINO,Y,Xanomeline High Dose,Xan_Hi,Xanomeline High Dose,Xan_Hi,Xanomeline High Dose,Xanomeline High Dose,2013-07-19,2013-07-19T00:00:00Z,H,2014-01-14,2014-01-14T23:59:59Z,H,COMPLETED,2014-01-14,,2013-07-19,2014-01-14,180,,,,,2013-09-24,68,Week 10 (T),10,Recoded Item - 01,QR01,NEI VFQ-25,General 01,0,,75,-75,-100,,Y,Y,,,,,,,,,,,,,8.1,WEEK 10 (T),,,
221,CDISCPILOT01,01-701-1028,1028,701,USA,,2013-07-19,2014-01-14,2013-07-19,2014-01-14,2014-01-14T11:10,,,,,,,,,,,,23,NA,2013-07-11,-8,71,YEARS,>64,M,WHITE,White,NOT HISPANIC OR LATINO,Y,Xanomeline High Dose,Xan_Hi,Xanomeline High Dose,Xan_Hi,Xanomeline High Dose,Xanomeline High Dose,2013-07-19,2013-07-19T00:00:00Z,H,2014-01-14,2014-01-14T23:59:59Z,H,COMPLETED,2014-01-14,,2013-07-19,2014-01-14,180,,,,,2013-10-09,83,Week 12,12,Recoded Item - 01,QR01,NEI VFQ-25,General 01,25,,75,-50,-66.66666666666666,,Y,Y,,,,,,,,,,,,,9,WEEK 12,,,
222,CDISCPILOT01,01-701-1028,1028,701,USA,,2013-07-19,2014-01-14,2013-07-19,2014-01-14,2014-01-14T11:10,,,,,,,,,,,,24,NA,2013-07-11,-8,71,YEARS,>64,M,WHITE,White,NOT HISPANIC OR LATINO,Y,Xanomeline High Dose,Xan_Hi,Xanomeline High Dose,Xan_Hi,Xanomeline High Dose,Xanomeline High Dose,2013-07-19,2013-07-19T00:00:00Z,H,2014-01-14,2014-01-14T23:59:59Z,H,COMPLETED,2014-01-14,,2013-07-19,2014-01-14,180,,,,,2013-10-23,97,Week 14 (T),14,Recoded Item - 01,QR01,NEI VFQ-25,General 01,75,,75,0,0,,Y,Y,,,,,,,,,,,,,9.1,WEEK 14 (T),,,
223,CDISCPILOT01,01-701-1028,1028,701,USA,,2013-07-19,2014-01-14,2013-07-19,2014-01-14,2014-01-14T11:10,,,,,,,,,,,,25,NA,2013-07-11,-8,71,YEARS,>64,M,WHITE,White,NOT HISPANIC OR LATINO,Y,Xanomeline High Dose,Xan_Hi,Xanomeline High Dose,Xan_Hi,Xanomeline High Dose,Xanomeline High Dose,2013-07-19,2013-07-19T00:00:00Z,H,2014-01-14,2014-01-14T23:59:59Z,H,COMPLETED,2014-01-14,,2013-07-19,2014-01-14,180,,,,,2013-11-06,111,Week 16,16,Recoded Item - 01,QR01,NEI VFQ-25,General 01,100,,75,25,33.33333333333333,,Y,Y,,,,,,,,,,,,,10,WEEK 16,,,
224,CDISCPILOT01,01-701-1028,1028,701,USA,,2013-07-19,2014-01-14,2013-07-19,2014-01-14,2014-01-14T11:10,,,,,,,,,,,,26,NA,2013-07-11,-8,71,YEARS,>64,M,WHITE,White,NOT HISPANIC OR LATINO,Y,Xanomeline High Dose,Xan_Hi,Xanomeline High Dose,Xan_Hi,Xanomeline High Dose,Xanomeline High Dose,2013-07-19,2013-07-19T00:00:00Z,H,2014-01-14,2014-01-14T23:59:59Z,H,COMPLETED,2014-01-14,,2013-07-19,2014-01-14,180,,,,,2013-11-20,125,Week 18 (T),18,Recoded Item - 01,QR01,NEI VFQ-25,General 01,75,,75,0,0,,Y,Y,,,,,,,,,,,,,10.1,WEEK 18 (T),,,
225,CDISCPILOT01,01-701-1028,1028,701,USA,,2013-07-19,2014-01-14,2013-07-19,2014-01-14,2014-01-14T11:10,,,,,,,,,,,,27,NA,2013-07-11,-8,71,YEARS,>64,M,WHITE,White,NOT HISPANIC OR LATINO,Y,Xanomeline High Dose,Xan_Hi,Xanomeline High Dose,Xan_Hi,Xanomeline High Dose,Xanomeline High Dose,2013-07-19,2013-07-19T00:00:00Z,H,2014-01-14,2014-01-14T23:59:59Z,H,COMPLETED,2014-01-14,,2013-07-19,2014-01-14,180,,,,,2013-12-04,139,Week 20,20,Recoded Item - 01,QR01,NEI VFQ-25,General 01,50,,75,-25,-33.33333333333333,,Y,Y,,,,,,,,,,,,,11,WEEK 20,,,
226,CDISCPILOT01,01-701-1028,1028,701,USA,,2013-07-19,2014-01-14,2013-07-19,2014-01-14,2014-01-14T11:10,,,,,,,,,,,,28,NA,2013-07-11,-8,71,YEARS,>64,M,WHITE,White,NOT HISPANIC OR LATINO,Y,Xanomeline High Dose,Xan_Hi,Xanomeline High Dose,Xan_Hi,Xanomeline High Dose,Xanomeline High Dose,2013-07-19,2013-07-19T00:00:00Z,H,2014-01-14,2014-01-14T23:59:59Z,H,COMPLETED,2014-01-14,,2013-07-19,2014-01-14,180,,,,,2013-12-18,153,Week 22 (T),22,Recoded Item - 01,QR01,NEI VFQ-25,General 01,50,,75,-25,-33.33333333333333,,Y,Y,,,,,,,,,,,,,11.1,WEEK 22 (T),,,
227,CDISCPILOT01,01-701-1028,1028,701,USA,,2013-07-19,2014-01-14,2013-07-19,2014-01-14,2014-01-14T11:10,,,,,,,,,,,,29,NA,2013-07-11,-8,71,YEARS,>64,M,WHITE,White,NOT HISPANIC OR LATINO,Y,Xanomeline High Dose,Xan_Hi,Xanomeline High Dose,Xan_Hi,Xanomeline High Dose,Xanomeline High Dose,2013-07-19,2013-07-19T00:00:00Z,H,2014-01-14,2014-01-14T23:59:59Z,H,COMPLETED,2014-01-14,,2013-07-19,2014-01-14,180,,,,,2014-01-06,172,Week 24,24,Recoded Item - 01,QR01,NEI VFQ-25,General 01,25,,75,-50,-66.66666666666666,,Y,Y,,,,,,,,,,,,,12,WEEK 24,,,
228,CDISCPILOT01,01-701-1028,1028,701,USA,,2013-07-19,2014-01-14,2013-07-19,2014-01-14,2014-01-14T11:10,,,,,,,,,,,,30,NA,2013-07-11,-8,71,YEARS,>64,M,WHITE,White,NOT HISPANIC OR LATINO,Y,Xanomeline High Dose,Xan_Hi,Xanomeline High Dose,Xan_Hi,Xanomeline High Dose,Xanomeline High Dose,2013-07-19,2013-07-19T00:00:00Z,H,2014-01-14,2014-01-14T23:59:59Z,H,COMPLETED,2014-01-14,,2013-07-19,2014-01-14,180,,,,,2014-01-14,180,Week 26,26,Recoded Item - 01,QR01,NEI VFQ-25,General 01,100,,75,25,33.33333333333333,,Y,Y,,,,,,,,,,,,,13,WEEK 26,,,
229,CDISCPILOT01,01-701-1028,1028,701,USA,,2013-07-19,2014-01-14,2013-07-19,2014-01-14,2014-01-14T11:10,,,,,,,,,,,,31,NA,2013-07-11,-8,71,YEARS,>64,M,WHITE,White,NOT HISPANIC OR LATINO,Y,Xanomeline High Dose,Xan_Hi,Xanomeline High Dose,Xan_Hi,Xanomeline High Dose,Xanomeline High Dose,2013-07-19,2013-07-19T00:00:00Z,H,2014-01-14,2014-01-14T23:59:59Z,H,COMPLETED,2014-01-14,,2013-07-19,2014-01-14,180,,,,,2013-07-11,-8,,,Recoded Item - 02,QR02,NEI VFQ-25,General 01,80,,20,60,300,,,,,,,,,,,,,,,,1,SCREENING 1,,,
230,CDISCPILOT01,01-701-1028,1028,701,USA,,2013-07-19,2014-01-14,2013-07-19,2014-01-14,2014-01-14T11:10,,,,,,,,,,,,32,NA,2013-07-11,-8,71,YEARS,>64,M,WHITE,White,NOT HISPANIC OR LATINO,Y,Xanomeline High Dose,Xan_Hi,Xanomeline High Dose,Xan_Hi,Xanomeline High Dose,Xanomeline High Dose,2013-07-19,2013-07-19T00:00:00Z,H,2014-01-14,2014-01-14T23:59:59Z,H,COMPLETED,2014-01-14,,2013-07-19,2014-01-14,180,,,,,2013-07-19,1,Baseline,0,Recoded Item - 02,QR02,NEI VFQ-25,General 01,20,,20,0,0,Y,,,,,,,,,,,,,,,3,BASELINE,,,
231,CDISCPILOT01,01-701-1028,1028,701,USA,,2013-07-19,2014-01-14,2013-07-19,2014-01-14,2014-01-14T11:10,,,,,,,,,,,,33,NA,2013-07-11,-8,71,YEARS,>64,M,WHITE,White,NOT HISPANIC OR LATINO,Y,Xanomeline High Dose,Xan_Hi,Xanomeline High Dose,Xan_Hi,Xanomeline High Dose,Xanomeline High Dose,2013-07-19,2013-07-19T00:00:00Z,H,2014-01-14,2014-01-14T23:59:59Z,H,COMPLETED,2014-01-14,,2013-07-19,2014-01-14,180,,,,,2013-08-01,14,Week 2,2,Recoded Item - 02,QR02,NEI VFQ-25,General 01,100,,20,80,400,,Y,Y,,,,,,,,,,,,,4,WEEK 2,,,
232,CDISCPILOT01,01-701-1028,1028,701,USA,,2013-07-19,2014-01-14,2013-07-19,2014-01-14,2014-01-14T11:10,,,,,,,,,,,,34,NA,2013-07-11,-8,71,YEARS,>64,M,WHITE,White,NOT HISPANIC OR LATINO,Y,Xanomeline High Dose,Xan_Hi,Xanomeline High Dose,Xan_Hi,Xanomeline High Dose,Xanomeline High Dose,2013-07-19,2013-07-19T00:00:00Z,H,2014-01-14,2014-01-14T23:59:59Z,H,COMPLETED,2014-01-14,,2013-07-19,2014-01-14,180,,,,,2013-08-14,27,Week 4,4,Recoded Item - 02,QR02,NEI VFQ-25,General 01,80,,20,60,300,,Y,Y,,,,,,,,,,,,,5,WEEK 4,,,
233,CDISCPILOT01,01-701-1028,1028,701,USA,,2013-07-19,2014-01-14,2013-07-19,2014-01-14,2014-01-14T11:10,,,,,,,,,,,,35,NA,2013-07-11,-8,71,YEARS,>64,M,WHITE,White,NOT HISPANIC OR LATINO,Y,Xanomeline High Dose,Xan_Hi,Xanomeline High Dose,Xan_Hi,Xanomeline High Dose,Xanomeline High Dose,2013-07-19,2013-07-19T00:00:00Z,H,2014-01-14,2014-01-14T23:59:59Z,H,COMPLETED,2014-01-14,,2013-07-19,2014-01-14,180,,,,,2013-08-29,42,Week 6,6,Recoded Item - 02,QR02,NEI VFQ-25,General 01,40,,20,20,100,,Y,Y,,,,,,,,,,,,,7,WEEK 6,,,
234,CDISCPILOT01,01-701-1028,1028,701,USA,,2013-07-19,2014-01-14,2013-07-19,2014-01-14,2014-01-14T11:10,,,,,,,,,,,,36,NA,2013-07-11,-8,71,YEARS,>64,M,WHITE,White,NOT HISPANIC OR LATINO,Y,Xanomeline High Dose,Xan_Hi,Xanomeline High Dose,Xan_Hi,Xanomeline High Dose,Xanomeline High Dose,2013-07-19,2013-07-19T00:00:00Z,H,2014-01-14,2014-01-14T23:59:59Z,H,COMPLETED,2014-01-14,,2013-07-19,2014-01-14,180,,,,,2013-09-10,54,Week 8,8,Recoded Item - 02,QR02,NEI VFQ-25,General 01,60,,20,40,200,,Y,Y,,,,,,,,,,,,,8,WEEK 8,,,
235,CDISCPILOT01,01-701-1028,1028,701,USA,,2013-07-19,2014-01-14,2013-07-19,2014-01-14,2014-01-14T11:10,,,,,,,,,,,,37,NA,2013-07-11,-8,71,YEARS,>64,M,WHITE,White,NOT HISPANIC OR LATINO,Y,Xanomeline High Dose,Xan_Hi,Xanomeline High Dose,Xan_Hi,Xanomeline High Dose,Xanomeline High Dose,2013-07-19,2013-07-19T00:00:00Z,H,2014-01-14,2014-01-14T23:59:59Z,H,COMPLETED,2014-01-14,,2013-07-19,2014-01-14,180,,,,,2013-09-24,68,Week 10 (T),10,Recoded Item - 02,QR02,NEI VFQ-25,General 01,20,,20,0,0,,Y,Y,,,,,,,,,,,,,8.1,WEEK 10 (T),,,
236,CDISCPILOT01,01-701-1028,1028,701,USA,,2013-07-19,2014-01-14,2013-07-19,2014-01-14,2014-01-14T11:10,,,,,,,,,,,,38,NA,2013-07-11,-8,71,YEARS,>64,M,WHITE,White,NOT HISPANIC OR LATINO,Y,Xanomeline High Dose,Xan_Hi,Xanomeline High Dose,Xan_Hi,Xanomeline High Dose,Xanomeline High Dose,2013-07-19,2013-07-19T00:00:00Z,H,2014-01-14,2014-01-14T23:59:59Z,H,COMPLETED,2014-01-14,,2013-07-19,2014-01-14,180,,,,,2013-10-09,83,Week 12,12,Recoded Item - 02,QR02,NEI VFQ-25,General 01,80,,20,60,300,,Y,Y,,,,,,,,,,,,,9,WEEK 12,,,
237,CDISCPILOT01,01-701-1028,1028,701,USA,,2013-07-19,2014-01-14,2013-07-19,2014-01-14,2014-01-14T11:10,,,,,,,,,,,,39,NA,2013-07-11,-8,71,YEARS,>64,M,WHITE,White,NOT HISPANIC OR LATINO,Y,Xanomeline High Dose,Xan_Hi,Xanomeline High Dose,Xan_Hi,Xanomeline High Dose,Xanomeline High Dose,2013-07-19,2013-07-19T00:00:00Z,H,2014-01-14,2014-01-14T23:59:59Z,H,COMPLETED,2014-01-14,,2013-07-19,2014-01-14,180,,,,,2013-10-23,97,Week 14 (T),14,Recoded Item - 02,QR02,NEI VFQ-25,General 01,20,,20,0,0,,Y,Y,,,,,,,,,,,,,9.1,WEEK 14 (T),,,
238,CDISCPILOT01,01-701-1028,1028,701,USA,,2013-07-19,2014-01-14,2013-07-19,2014-01-14,2014-01-14T11:10,,,,,,,,,,,,40,NA,2013-07-11,-8,71,YEARS,>64,M,WHITE,White,NOT HISPANIC OR LATINO,Y,Xanomeline High Dose,Xan_Hi,Xanomeline High Dose,Xan_Hi,Xanomeline High Dose,Xanomeline High Dose,2013-07-19,2013-07-19T00:00:00Z,H,2014-01-14,2014-01-14T23:59:59Z,H,COMPLETED,2014-01-14,,2013-07-19,2014-01-14,180,,,,,2013-11-06,111,Week 16,16,Recoded Item - 02,QR02,NEI VFQ-25,General 01,40,,20,20,100,,Y,Y,,,,,,,,,,,,,10,WEEK 16,,,
239,CDISCPILOT01,01-701-1028,1028,701,USA,,2013-07-19,2014-01-14,2013-07-19,2014-01-14,2014-01-14T11:10,,,,,,,,,,,,41,NA,2013-07-11,-8,71,YEARS,>64,M,WHITE,White,NOT HISPANIC OR LATINO,Y,Xanomeline High Dose,Xan_Hi,Xanomeline High Dose,Xan_Hi,Xanomeline High Dose,Xanomeline High Dose,2013-07-19,2013-07-19T00:00:00Z,H,2014-01-14,2014-01-14T23:59:59Z,H,COMPLETED,2014-01-14,,2013-07-19,2014-01-14,180,,,,,2013-11-20,125,Week 18 (T),18,Recoded Item - 02,QR02,NEI VFQ-25,General 01,60,,20,40,200,,Y,Y,,,,,,,,,,,,,10.1,WEEK 18 (T),,,
240,CDISCPILOT01,01-701-1028,1028,701,USA,,2013-07-19,2014-01-14,2013-07-19,2014-01-14,2014-01-14T11:10,,,,,,,,,,,,42,NA,2013-07-11,-8,71,YEARS,>64,M,WHITE,White,NOT HISPANIC OR LATINO,Y,Xanomeline High Dose,Xan_Hi,Xanomeline High Dose,Xan_Hi,Xanomeline High Dose,Xanomeline High Dose,2013-07-19,2013-07-19T00:00:00Z,H,2014-01-14,2014-01-14T23:59:59Z,H,COMPLETED,2014-01-14,,2013-07-19,2014-01-14,180,,,,,2013-12-04,139,Week 20,20,Recoded Item - 02,QR02,NEI VFQ-25,General 01,40,,20,20,100,,Y,Y,,,,,,,,,,,,,11,WEEK 20,,,
241,CDISCPILOT01,01-701-1028,1028,701,USA,,2013-07-19,2014-01-14,2013-07-19,2014-01-14,2014-01-14T11:10,,,,,,,,,,,,43,NA,2013-07-11,-8,71,YEARS,>64,M,WHITE,White,NOT HISPANIC OR LATINO,Y,Xanomeline High Dose,Xan_Hi,Xanomeline High Dose,Xan_Hi,Xanomeline High Dose,Xanomeline High Dose,2013-07-19,2013-07-19T00:00:00Z,H,2014-01-14,2014-01-14T23:59:59Z,H,COMPLETED,2014-01-14,,2013-07-19,2014-01-14,180,,,,,2013-12-18,153,Week 22 (T),22,Recoded Item - 02,QR02,NEI VFQ-25,General 01,60,,20,40,200,,Y,Y,,,,,,,,,,,,,11.1,WEEK 22 (T),,,
242,CDISCPILOT01,01-701-1028,1028,701,USA,,2013-07-19,2014-01-14,2013-07-19,2014-01-14,2014-01-14T11:10,,,,,,,,,,,,44,NA,2013-07-11,-8,71,YEARS,>64,M,WHITE,White,NOT HISPANIC OR LATINO,Y,Xanomeline High Dose,Xan_Hi,Xanomeline High Dose,Xan_Hi,Xanomeline High Dose,Xanomeline High Dose,2013-07-19,2013-07-19T00:00:00Z,H,2014-01-14,2014-01-14T23:59:59Z,H,COMPLETED,2014-01-14,,2013-07-19,2014-01-14,180,,,,,2014-01-06,172,Week 24,24,Recoded Item - 02,QR02,NEI VFQ-25,General 01,80,,20,60,300,,Y,Y,,,,,,,,,,,,,12,WEEK 24,,,
243,CDISCPILOT01,01-701-1028,1028,701,USA,,2013-07-19,2014-01-14,2013-07-19,2014-01-14,2014-01-14T11:10,,,,,,,,,,,,45,NA,2013-07-11,-8,71,YEARS,>64,M,WHITE,White,NOT HISPANIC OR LATINO,Y,Xanomeline High Dose,Xan_Hi,Xanomeline High Dose,Xan_Hi,Xanomeline High Dose,Xanomeline High Dose,2013-07-19,2013-07-19T00:00:00Z,H,2014-01-14,2014-01-14T23:59:59Z,H,COMPLETED,2014-01-14,,2013-07-19,2014-01-14,180,,,,,2014-01-14,180,Week 26,26,Recoded Item - 02,QR02,NEI VFQ-25,General 01,80,,20,60,300,,Y,Y,,,,,,,,,,,,,13,WEEK 26,,,
244,CDISCPILOT01,01-701-1028,1028,701,USA,,2013-07-19,2014-01-14,2013-07-19,2014-01-14,2014-01-14T11:10,,,,,,,,,,,,46,NA,2013-07-11,-8,71,YEARS,>64,M,WHITE,White,NOT HISPANIC OR LATINO,Y,Xanomeline High Dose,Xan_Hi,Xanomeline High Dose,Xan_Hi,Xanomeline High Dose,Xanomeline High Dose,2013-07-19,2013-07-19T00:00:00Z,H,2014-01-14,2014-01-14T23:59:59Z,H,COMPLETED,2014-01-14,,2013-07-19,2014-01-14,180,,,,,2013-07-11,-8,,,Recoded Item - 03,QR03,NEI VFQ-25,General 02,0,,25,-25,-100,,,,,,,,,,,,,,,,1,SCREENING 1,,,
245,CDISCPILOT01,01-701-1028,1028,701,USA,,2013-07-19,2014-01-14,2013-07-19,2014-01-14,2014-01-14T11:10,,,,,,,,,,,,47,NA,2013-07-11,-8,71,YEARS,>64,M,WHITE,White,NOT HISPANIC OR LATINO,Y,Xanomeline High Dose,Xan_Hi,Xanomeline High Dose,Xan_Hi,Xanomeline High Dose,Xanomeline High Dose,2013-07-19,2013-07-19T00:00:00Z,H,2014-01-14,2014-01-14T23:59:59Z,H,COMPLETED,2014-01-14,,2013-07-19,2014-01-14,180,,,,,2013-07-19,1,Baseline,0,Recoded Item - 03,QR03,NEI VFQ-25,General 02,25,,25,0,0,Y,,,,,,,,,,,,,,,3,BASELINE,,,
246,CDISCPILOT01,01-701-1028,1028,701,USA,,2013-07-19,2014-01-14,2013-07-19,2014-01-14,2014-01-14T11:10,,,,,,,,,,,,48,NA,2013-07-11,-8,71,YEARS,>64,M,WHITE,White,NOT HISPANIC OR LATINO,Y,Xanomeline High Dose,Xan_Hi,Xanomeline High Dose,Xan_Hi,Xanomeline High Dose,Xanomeline High Dose,2013-07-19,2013-07-19T00:00:00Z,H,2014-01-14,2014-01-14T23:59:59Z,H,COMPLETED,2014-01-14,,2013-07-19,2014-01-14,180,,,,,2013-08-01,14,Week 2,2,Recoded Item - 03,QR03,NEI VFQ-25,General 02,25,,25,0,0,,Y,Y,,,,,,,,,,,,,4,WEEK 2,,,
247,CDISCPILOT01,01-701-1028,1028,701,USA,,2013-07-19,2014-01-14,2013-07-19,2014-01-14,2014-01-14T11:10,,,,,,,,,,,,49,NA,2013-07-11,-8,71,YEARS,>64,M,WHITE,White,NOT HISPANIC OR LATINO,Y,Xanomeline High Dose,Xan_Hi,Xanomeline High Dose,Xan_Hi,Xanomeline High Dose,Xanomeline High Dose,2013-07-19,2013-07-19T00:00:00Z,H,2014-01-14,2014-01-14T23:59:59Z,H,COMPLETED,2014-01-14,,2013-07-19,2014-01-14,180,,,,,2013-08-14,27,Week 4,4,Recoded Item - 03,QR03,NEI VFQ-25,General 02,50,,25,25,100,,Y,Y,,,,,,,,,,,,,5,WEEK 4,,,
248,CDISCPILOT01,01-701-1028,1028,701,USA,,2013-07-19,2014-01-14,2013-07-19,2014-01-14,2014-01-14T11:10,,,,,,,,,,,,50,NA,2013-07-11,-8,71,YEARS,>64,M,WHITE,White,NOT HISPANIC OR LATINO,Y,Xanomeline High Dose,Xan_Hi,Xanomeline High Dose,Xan_Hi,Xanomeline High Dose,Xanomeline High Dose,2013-07-19,2013-07-19T00:00:00Z,H,2014-01-14,2014-01-14T23:59:59Z,H,COMPLETED,2014-01-14,,2013-07-19,2014-01-14,180,,,,,2013-08-29,42,Week 6,6,Recoded Item - 03,QR03,NEI VFQ-25,General 02,50,,25,25,100,,Y,Y,,,,,,,,,,,,,7,WEEK 6,,,
249,CDISCPILOT01,01-701-1028,1028,701,USA,,2013-07-19,2014-01-14,2013-07-19,2014-01-14,2014-01-14T11:10,,,,,,,,,,,,51,NA,2013-07-11,-8,71,YEARS,>64,M,WHITE,White,NOT HISPANIC OR LATINO,Y,Xanomeline High Dose,Xan_Hi,Xanomeline High Dose,Xan_Hi,Xanomeline High Dose,Xanomeline High Dose,2013-07-19,2013-07-19T00:00:00Z,H,2014-01-14,2014-01-14T23:59:59Z,H,COMPLETED,2014-01-14,,2013-07-19,2014-01-14,180,,,,,2013-09-10,54,Week 8,8,Recoded Item - 03,QR03,NEI VFQ-25,General 02,25,,25,0,0,,Y,Y,,,,,,,,,,,,,8,WEEK 8,,,
250,CDISCPILOT01,01-701-1028,1028,701,USA,,2013-07-19,2014-01-14,2013-07-19,2014-01-14,2014-01-14T11:10,,,,,,,,,,,,52,NA,2013-07-11,-8,71,YEARS,>64,M,WHITE,White,NOT HISPANIC OR LATINO,Y,Xanomeline High Dose,Xan_Hi,Xanomeline High Dose,Xan_Hi,Xanomeline High Dose,Xanomeline High Dose,2013-07-19,2013-07-19T00:00:00Z,H,2014-01-14,2014-01-14T23:59:59Z,H,COMPLETED,2014-01-14,,2013-07-19,2014-01-14,180,,,,,2013-09-24,68,Week 10 (T),10,Recoded Item - 03,QR03,NEI VFQ-25,General 02,0,,25,-25,-100,,Y,Y,,,,,,,,,,,,,8.1,WEEK 10 (T),,,
251,CDISCPILOT01,01-701-1028,1028,701,USA,,2013-07-19,2014-01-14,2013-07-19,2014-01-14,2014-01-14T11:10,,,,,,,,,,,,53,NA,2013-07-11,-8,71,YEARS,>64,M,WHITE,White,NOT HISPANIC OR LATINO,Y,Xanomeline High Dose,Xan_Hi,Xanomeline High Dose,Xan_Hi,Xanomeline High Dose,Xanomeline High Dose,2013-07-19,2013-07-19T00:00:00Z,H,2014-01-14,2014-01-14T23:59:59Z,H,COMPLETED,2014-01-14,,2013-07-19,2014-01-14,180,,,,,2013-10-09,83,Week 12,12,Recoded Item - 03,QR03,NEI VFQ-25,General 02,0,,25,-25,-100,,Y,Y,,,,,,,,,,,,,9,WEEK 12,,,
252,CDISCPILOT01,01-701-1028,1028,701,USA,,2013-07-19,2014-01-14,2013-07-19,2014-01-14,2014-01-14T11:10,,,,,,,,,,,,54,NA,2013-07-11,-8,71,YEARS,>64,M,WHITE,White,NOT HISPANIC OR LATINO,Y,Xanomeline High Dose,Xan_Hi,Xanomeline High Dose,Xan_Hi,Xanomeline High Dose,Xanomeline High Dose,2013-07-19,2013-07-19T00:00:00Z,H,2014-01-14,2014-01-14T23:59:59Z,H,COMPLETED,2014-01-14,,2013-07-19,2014-01-14,180,,,,,2013-10-23,97,Week 14 (T),14,Recoded Item - 03,QR03,NEI VFQ-25,General 02,50,,25,25,100,,Y,Y,,,,,,,,,,,,,9.1,WEEK 14 (T),,,
253,CDISCPILOT01,01-701-1028,1028,701,USA,,2013-07-19,2014-01-14,2013-07-19,2014-01-14,2014-01-14T11:10,,,,,,,,,,,,55,NA,2013-07-11,-8,71,YEARS,>64,M,WHITE,White,NOT HISPANIC OR LATINO,Y,Xanomeline High Dose,Xan_Hi,Xanomeline High Dose,Xan_Hi,Xanomeline High Dose,Xanomeline High Dose,2013-07-19,2013-07-19T00:00:00Z,H,2014-01-14,2014-01-14T23:59:59Z,H,COMPLETED,2014-01-14,,2013-07-19,2014-01-14,180,,,,,2013-11-06,111,Week 16,16,Recoded Item - 03,QR03,NEI VFQ-25,General 02,25,,25,0,0,,Y,Y,,,,,,,,,,,,,10,WEEK 16,,,
254,CDISCPILOT01,01-701-1028,1028,701,USA,,2013-07-19,2014-01-14,2013-07-19,2014-01-14,2014-01-14T11:10,,,,,,,,,,,,56,NA,2013-07-11,-8,71,YEARS,>64,M,WHITE,White,NOT HISPANIC OR LATINO,Y,Xanomeline High Dose,Xan_Hi,Xanomeline High Dose,Xan_Hi,Xanomeline High Dose,Xanomeline High Dose,2013-07-19,2013-07-19T00:00:00Z,H,2014-01-14,2014-01-14T23:59:59Z,H,COMPLETED,2014-01-14,,2013-07-19,2014-01-14,180,,,,,2013-11-20,125,Week 18 (T),18,Recoded Item - 03,QR03,NEI VFQ-25,General 02,25,,25,0,0,,Y,Y,,,,,,,,,,,,,10.1,WEEK 18 (T),,,
255,CDISCPILOT01,01-701-1028,1028,701,USA,,2013-07-19,2014-01-14,2013-07-19,2014-01-14,2014-01-14T11:10,,,,,,,,,,,,57,NA,2013-07-11,-8,71,YEARS,>64,M,WHITE,White,NOT HISPANIC OR LATINO,Y,Xanomeline High Dose,Xan_Hi,Xanomeline High Dose,Xan_Hi,Xanomeline High Dose,Xanomeline High Dose,2013-07-19,2013-07-19T00:00:00Z,H,2014-01-14,2014-01-14T23:59:59Z,H,COMPLETED,2014-01-14,,2013-07-19,2014-01-14,180,,,,,2013-12-04,139,Week 20,20,Recoded Item - 03,QR03,NEI VFQ-25,General 02,75,,25,50,200,,Y,Y,,,,,,,,,,,,,11,WEEK 20,,,
256,CDISCPILOT01,01-701-1028,1028,701,USA,,2013-07-19,2014-01-14,2013-07-19,2014-01-14,2014-01-14T11:10,,,,,,,,,,,,58,NA,2013-07-11,-8,71,YEARS,>64,M,WHITE,White,NOT HISPANIC OR LATINO,Y,Xanomeline High Dose,Xan_Hi,Xanomeline High Dose,Xan_Hi,Xanomeline High Dose,Xanomeline High Dose,2013-07-19,2013-07-19T00:00:00Z,H,2014-01-14,2014-01-14T23:59:59Z,H,COMPLETED,2014-01-14,,2013-07-19,2014-01-14,180,,,,,2013-12-18,153,Week 22 (T),22,Recoded Item - 03,QR03,NEI VFQ-25,General 02,25,,25,0,0,,Y,Y,,,,,,,,,,,,,11.1,WEEK 22 (T),,,
257,CDISCPILOT01,01-701-1028,1028,701,USA,,2013-07-19,2014-01-14,2013-07-19,2014-01-14,2014-01-14T11:10,,,,,,,,,,,,59,NA,2013-07-11,-8,71,YEARS,>64,M,WHITE,White,NOT HISPANIC OR LATINO,Y,Xanomeline High Dose,Xan_Hi,Xanomeline High Dose,Xan_Hi,Xanomeline High Dose,Xanomeline High Dose,2013-07-19,2013-07-19T00:00:00Z,H,2014-01-14,2014-01-14T23:59:59Z,H,COMPLETED,2014-01-14,,2013-07-19,2014-01-14,180,,,,,2014-01-06,172,Week 24,24,Recoded Item - 03,QR03,NEI VFQ-25,General 02,75,,25,50,200,,Y,Y,,,,,,,,,,,,,12,WEEK 24,,,
258,CDISCPILOT01,01-701-1028,1028,701,USA,,2013-07-19,2014-01-14,2013-07-19,2014-01-14,2014-01-14T11:10,,,,,,,,,,,,60,NA,2013-07-11,-8,71,YEARS,>64,M,WHITE,White,NOT HISPANIC OR LATINO,Y,Xanomeline High Dose,Xan_Hi,Xanomeline High Dose,Xan_Hi,Xanomeline High Dose,Xanomeline High Dose,2013-07-19,2013-07-19T00:00:00Z,H,2014-01-14,2014-01-14T23:59:59Z,H,COMPLETED,2014-01-14,,2013-07-19,2014-01-14,180,,,,,2014-01-14,180,Week 26,26,Recoded Item - 03,QR03,NEI VFQ-25,General 02,75,,25,50,200,,Y,Y,,,,,,,,,,,,,13,WEEK 26,,,
259,CDISCPILOT01,01-701-1028,1028,701,USA,,2013-07-19,2014-01-14,2013-07-19,2014-01-14,2014-01-14T11:10,,,,,,,,,,,,61,NA,2013-07-11,-8,71,YEARS,>64,M,WHITE,White,NOT HISPANIC OR LATINO,Y,Xanomeline High Dose,Xan_Hi,Xanomeline High Dose,Xan_Hi,Xanomeline High Dose,Xanomeline High Dose,2013-07-19,2013-07-19T00:00:00Z,H,2014-01-14,2014-01-14T23:59:59Z,H,COMPLETED,2014-01-14,,2013-07-19,2014-01-14,180,,,,,2013-07-11,-8,,,Recoded Item - 04,QR04,NEI VFQ-25,General 02,50,,25,25,100,,,,,,,,,,,,,,,,1,SCREENING 1,,,
260,CDISCPILOT01,01-701-1028,1028,701,USA,,2013-07-19,2014-01-14,2013-07-19,2014-01-14,2014-01-14T11:10,,,,,,,,,,,,62,NA,2013-07-11,-8,71,YEARS,>64,M,WHITE,White,NOT HISPANIC OR LATINO,Y,Xanomeline High Dose,Xan_Hi,Xanomeline High Dose,Xan_Hi,Xanomeline High Dose,Xanomeline High Dose,2013-07-19,2013-07-19T00:00:00Z,H,2014-01-14,2014-01-14T23:59:59Z,H,COMPLETED,2014-01-14,,2013-07-19,2014-01-14,180,,,,,2013-07-19,1,Baseline,0,Recoded Item - 04,QR04,NEI VFQ-25,General 02,25,,25,0,0,Y,,,,,,,,,,,,,,,3,BASELINE,,,
261,CDISCPILOT01,01-701-1028,1028,701,USA,,2013-07-19,2014-01-14,2013-07-19,2014-01-14,2014-01-14T11:10,,,,,,,,,,,,63,NA,2013-07-11,-8,71,YEARS,>64,M,WHITE,White,NOT HISPANIC OR LATINO,Y,Xanomeline High Dose,Xan_Hi,Xanomeline High Dose,Xan_Hi,Xanomeline High Dose,Xanomeline High Dose,2013-07-19,2013-07-19T00:00:00Z,H,2014-01-14,2014-01-14T23:59:59Z,H,COMPLETED,2014-01-14,,2013-07-19,2014-01-14,180,,,,,2013-08-01,14,Week 2,2,Recoded Item - 04,QR04,NEI VFQ-25,General 02,0,,25,-25,-100,,Y,Y,,,,,,,,,,,,,4,WEEK 2,,,
262,CDISCPILOT01,01-701-1028,1028,701,USA,,2013-07-19,2014-01-14,2013-07-19,2014-01-14,2014-01-14T11:10,,,,,,,,,,,,64,NA,2013-07-11,-8,71,YEARS,>64,M,WHITE,White,NOT HISPANIC OR LATINO,Y,Xanomeline High Dose,Xan_Hi,Xanomeline High Dose,Xan_Hi,Xanomeline High Dose,Xanomeline High Dose,2013-07-19,2013-07-19T00:00:00Z,H,2014-01-14,2014-01-14T23:59:59Z,H,COMPLETED,2014-01-14,,2013-07-19,2014-01-14,180,,,,,2013-08-14,27,Week 4,4,Recoded Item - 04,QR04,NEI VFQ-25,General 02,25,,25,0,0,,Y,Y,,,,,,,,,,,,,5,WEEK 4,,,
263,CDISCPILOT01,01-701-1028,1028,701,USA,,2013-07-19,2014-01-14,2013-07-19,2014-01-14,2014-01-14T11:10,,,,,,,,,,,,65,NA,2013-07-11,-8,71,YEARS,>64,M,WHITE,White,NOT HISPANIC OR LATINO,Y,Xanomeline High Dose,Xan_Hi,Xanomeline High Dose,Xan_Hi,Xanomeline High Dose,Xanomeline High Dose,2013-07-19,2013-07-19T00:00:00Z,H,2014-01-14,2014-01-14T23:59:59Z,H,COMPLETED,2014-01-14,,2013-07-19,2014-01-14,180,,,,,2013-08-29,42,Week 6,6,Recoded Item - 04,QR04,NEI VFQ-25,General 02,75,,25,50,200,,Y,Y,,,,,,,,,,,,,7,WEEK 6,,,
264,CDISCPILOT01,01-701-1028,1028,701,USA,,2013-07-19,2014-01-14,2013-07-19,2014-01-14,2014-01-14T11:10,,,,,,,,,,,,66,NA,2013-07-11,-8,71,YEARS,>64,M,WHITE,White,NOT HISPANIC OR LATINO,Y,Xanomeline High Dose,Xan_Hi,Xanomeline High Dose,Xan_Hi,Xanomeline High Dose,Xanomeline High Dose,2013-07-19,2013-07-19T00:00:00Z,H,2014-01-14,2014-01-14T23:59:59Z,H,COMPLETED,2014-01-14,,2013-07-19,2014-01-14,180,,,,,2013-09-10,54,Week 8,8,Recoded Item - 04,QR04,NEI VFQ-25,General 02,75,,25,50,200,,Y,Y,,,,,,,,,,,,,8,WEEK 8,,,
265,CDISCPILOT01,01-701-1028,1028,701,USA,,2013-07-19,2014-01-14,2013-07-19,2014-01-14,2014-01-14T11:10,,,,,,,,,,,,67,NA,2013-07-11,-8,71,YEARS,>64,M,WHITE,White,NOT HISPANIC OR LATINO,Y,Xanomeline High Dose,Xan_Hi,Xanomeline High Dose,Xan_Hi,Xanomeline High Dose,Xanomeline High Dose,2013-07-19,2013-07-19T00:00:00Z,H,2014-01-14,2014-01-14T23:59:59Z,H,COMPLETED,2014-01-14,,2013-07-19,2014-01-14,180,,,,,2013-09-24,68,Week 10 (T),10,Recoded Item - 04,QR04,NEI VFQ-25,General 02,75,,25,50,200,,Y,Y,,,,,,,,,,,,,8.1,WEEK 10 (T),,,
266,CDISCPILOT01,01-701-1028,1028,701,USA,,2013-07-19,2014-01-14,2013-07-19,2014-01-14,2014-01-14T11:10,,,,,,,,,,,,68,NA,2013-07-11,-8,71,YEARS,>64,M,WHITE,White,NOT HISPANIC OR LATINO,Y,Xanomeline High Dose,Xan_Hi,Xanomeline High Dose,Xan_Hi,Xanomeline High Dose,Xanomeline High Dose,2013-07-19,2013-07-19T00:00:00Z,H,2014-01-14,2014-01-14T23:59:59Z,H,COMPLETED,2014-01-14,,2013-07-19,2014-01-14,180,,,,,2013-10-09,83,Week 12,12,Recoded Item - 04,QR04,NEI VFQ-25,General 02,75,,25,50,200,,Y,Y,,,,,,,,,,,,,9,WEEK 12,,,
267,CDISCPILOT01,01-701-1028,1028,701,USA,,2013-07-19,2014-01-14,2013-07-19,2014-01-14,2014-01-14T11:10,,,,,,,,,,,,69,NA,2013-07-11,-8,71,YEARS,>64,M,WHITE,White,NOT HISPANIC OR LATINO,Y,Xanomeline High Dose,Xan_Hi,Xanomeline High Dose,Xan_Hi,Xanomeline High Dose,Xanomeline High Dose,2013-07-19,2013-07-19T00:00:00Z,H,2014-01-14,2014-01-14T23:59:59Z,H,COMPLETED,2014-01-14,,2013-07-19,2014-01-14,180,,,,,2013-10-23,97,Week 14 (T),14,Recoded Item - 04,QR04,NEI VFQ-25,General 02,0,,25,-25,-100,,Y,Y,,,,,,,,,,,,,9.1,WEEK 14 (T),,,
268,CDISCPILOT01,01-701-1028,1028,701,USA,,2013-07-19,2014-01-14,2013-07-19,2014-01-14,2014-01-14T11:10,,,,,,,,,,,,70,NA,2013-07-11,-8,71,YEARS,>64,M,WHITE,White,NOT HISPANIC OR LATINO,Y,Xanomeline High Dose,Xan_Hi,Xanomeline High Dose,Xan_Hi,Xanomeline High Dose,Xanomeline High Dose,2013-07-19,2013-07-19T00:00:00Z,H,2014-01-14,2014-01-14T23:59:59Z,H,COMPLETED,2014-01-14,,2013-07-19,2014-01-14,180,,,,,2013-11-06,111,Week 16,16,Recoded Item - 04,QR04,NEI VFQ-25,General 02,25,,25,0,0,,Y,Y,,,,,,,,,,,,,10,WEEK 16,,,
269,CDISCPILOT01,01-701-1028,1028,701,USA,,2013-07-19,2014-01-14,2013-07-19,2014-01-14,2014-01-14T11:10,,,,,,,,,,,,71,NA,2013-07-11,-8,71,YEARS,>64,M,WHITE,White,NOT HISPANIC OR LATINO,Y,Xanomeline High Dose,Xan_Hi,Xanomeline High Dose,Xan_Hi,Xanomeline High Dose,Xanomeline High Dose,2013-07-19,2013-07-19T00:00:00Z,H,2014-01-14,2014-01-14T23:59:59Z,H,COMPLETED,2014-01-14,,2013-07-19,2014-01-14,180,,,,,2013-11-20,125,Week 18 (T),18,Recoded Item - 04,QR04,NEI VFQ-25,General 02,25,,25,0,0,,Y,Y,,,,,,,,,,,,,10.1,WEEK 18 (T),,,
270,CDISCPILOT01,01-701-1028,1028,701,USA,,2013-07-19,2014-01-14,2013-07-19,2014-01-14,2014-01-14T11:10,,,,,,,,,,,,72,NA,2013-07-11,-8,71,YEARS,>64,M,WHITE,White,NOT HISPANIC OR LATINO,Y,Xanomeline High Dose,Xan_Hi,Xanomeline High Dose,Xan_Hi,Xanomeline High Dose,Xanomeline High Dose,2013-07-19,2013-07-19T00:00:00Z,H,2014-01-14,2014-01-14T23:59:59Z,H,COMPLETED,2014-01-14,,2013-07-19,2014-01-14,180,,,,,2013-12-04,139,Week 20,20,Recoded Item - 04,QR04,NEI VFQ-25,General 02,25,,25,0,0,,Y,Y,,,,,,,,,,,,,11,WEEK 20,,,
271,CDISCPILOT01,01-701-1028,1028,701,USA,,2013-07-19,2014-01-14,2013-07-19,2014-01-14,2014-01-14T11:10,,,,,,,,,,,,73,NA,2013-07-11,-8,71,YEARS,>64,M,WHITE,White,NOT HISPANIC OR LATINO,Y,Xanomeline High Dose,Xan_Hi,Xanomeline High Dose,Xan_Hi,Xanomeline High Dose,Xanomeline High Dose,2013-07-19,2013-07-19T00:00:00Z,H,2014-01-14,2014-01-14T23:59:59Z,H,COMPLETED,2014-01-14,,2013-07-19,2014-01-14,180,,,,,2013-12-18,153,Week 22 (T),22,Recoded Item - 04,QR04,NEI VFQ-25,General 02,50,,25,25,100,,Y,Y,,,,,,,,,,,,,11.1,WEEK 22 (T),,,
272,CDISCPILOT01,01-701-1028,1028,701,USA,,2013-07-19,2014-01-14,2013-07-19,2014-01-14,2014-01-14T11:10,,,,,,,,,,,,74,NA,2013-07-11,-8,71,YEARS,>64,M,WHITE,White,NOT HISPANIC OR LATINO,Y,Xanomeline High Dose,Xan_Hi,Xanomeline High Dose,Xan_Hi,Xanomeline High Dose,Xanomeline High Dose,2013-07-19,2013-07-19T00:00:00Z,H,2014-01-14,2014-01-14T23:59:59Z,H,COMPLETED,2014-01-14,,2013-07-19,2014-01-14,180,,,,,2014-01-06,172,Week 24,24,Recoded Item - 04,QR04,NEI VFQ-25,General 02,50,,25,25,100,,Y,Y,,,,,,,,,,,,,12,WEEK 24,,,
273,CDISCPILOT01,01-701-1028,1028,701,USA,,2013-07-19,2014-01-14,2013-07-19,2014-01-14,2014-01-14T11:10,,,,,,,,,,,,75,NA,2013-07-11,-8,71,YEARS,>64,M,WHITE,White,NOT HISPANIC OR LATINO,Y,Xanomeline High Dose,Xan_Hi,Xanomeline High Dose,Xan_Hi,Xanomeline High Dose,Xanomeline High Dose,2013-07-19,2013-07-19T00:00:00Z,H,2014-01-14,2014-01-14T23:59:59Z,H,COMPLETED,2014-01-14,,2013-07-19,2014-01-14,180,,,,,2014-01-14,180,Week 26,26,Recoded Item - 04,QR04,NEI VFQ-25,General 02,25,,25,0,0,,Y,Y,,,,,,,,,,,,,13,WEEK 26,,,
274,CDISCPILOT01,01-701-1028,1028,701,USA,,2013-07-19,2014-01-14,2013-07-19,2014-01-14,2014-01-14T11:10,,,,,,,,,,,,76,NA,2013-07-11,-8,71,YEARS,>64,M,WHITE,White,NOT HISPANIC OR LATINO,Y,Xanomeline High Dose,Xan_Hi,Xanomeline High Dose,Xan_Hi,Xanomeline High Dose,Xanomeline High Dose,2013-07-19,2013-07-19T00:00:00Z,H,2014-01-14,2014-01-14T23:59:59Z,H,COMPLETED,2014-01-14,,2013-07-19,2014-01-14,180,,,,,2013-07-11,-8,,,General Score 01,QSG01,NEI VFQ-25,Averaged Result,77.5,,47.5,30,63.1578947368421,,,,,,,,,,,,,,,,1,SCREENING 1,,,
275,CDISCPILOT01,01-701-1028,1028,701,USA,,2013-07-19,2014-01-14,2013-07-19,2014-01-14,2014-01-14T11:10,,,,,,,,,,,,77,NA,2013-07-11,-8,71,YEARS,>64,M,WHITE,White,NOT HISPANIC OR LATINO,Y,Xanomeline High Dose,Xan_Hi,Xanomeline High Dose,Xan_Hi,Xanomeline High Dose,Xanomeline High Dose,2013-07-19,2013-07-19T00:00:00Z,H,2014-01-14,2014-01-14T23:59:59Z,H,COMPLETED,2014-01-14,,2013-07-19,2014-01-14,180,,,,,2013-07-19,1,Baseline,0,General Score 01,QSG01,NEI VFQ-25,Averaged Result,47.5,,47.5,0,0,Y,,,,,,,,,,,,,,,3,BASELINE,,,
276,CDISCPILOT01,01-701-1028,1028,701,USA,,2013-07-19,2014-01-14,2013-07-19,2014-01-14,2014-01-14T11:10,,,,,,,,,,,,78,NA,2013-07-11,-8,71,YEARS,>64,M,WHITE,White,NOT HISPANIC OR LATINO,Y,Xanomeline High Dose,Xan_Hi,Xanomeline High Dose,Xan_Hi,Xanomeline High Dose,Xanomeline High Dose,2013-07-19,2013-07-19T00:00:00Z,H,2014-01-14,2014-01-14T23:59:59Z,H,COMPLETED,2014-01-14,,2013-07-19,2014-01-14,180,,,,,2013-08-01,14,Week 2,2,General Score 01,QSG01,NEI VFQ-25,Averaged Result,50,,47.5,2.5,5.263157894736842,,Y,Y,,,,,,,,,,,,,4,WEEK 2,,,
277,CDISCPILOT01,01-701-1028,1028,701,USA,,2013-07-19,2014-01-14,2013-07-19,2014-01-14,2014-01-14T11:10,,,,,,,,,,,,79,NA,2013-07-11,-8,71,YEARS,>64,M,WHITE,White,NOT HISPANIC OR LATINO,Y,Xanomeline High Dose,Xan_Hi,Xanomeline High Dose,Xan_Hi,Xanomeline High Dose,Xanomeline High Dose,2013-07-19,2013-07-19T00:00:00Z,H,2014-01-14,2014-01-14T23:59:59Z,H,COMPLETED,2014-01-14,,2013-07-19,2014-01-14,180,,,,,2013-08-14,27,Week 4,4,General Score 01,QSG01,NEI VFQ-25,Averaged Result,77.5,,47.5,30,63.1578947368421,,Y,Y,,,,,,,,,,,,,5,WEEK 4,,,
278,CDISCPILOT01,01-701-1028,1028,701,USA,,2013-07-19,2014-01-14,2013-07-19,2014-01-14,2014-01-14T11:10,,,,,,,,,,,,80,NA,2013-07-11,-8,71,YEARS,>64,M,WHITE,White,NOT HISPANIC OR LATINO,Y,Xanomeline High Dose,Xan_Hi,Xanomeline High Dose,Xan_Hi,Xanomeline High Dose,Xanomeline High Dose,2013-07-19,2013-07-19T00:00:00Z,H,2014-01-14,2014-01-14T23:59:59Z,H,COMPLETED,2014-01-14,,2013-07-19,2014-01-14,180,,,,,2013-08-29,42,Week 6,6,General Score 01,QSG01,NEI VFQ-25,Averaged Result,57.5,,47.5,10,21.052631578947366,,Y,Y,,,,,,,,,,,,,7,WEEK 6,,,
279,CDISCPILOT01,01-701-1028,1028,701,USA,,2013-07-19,2014-01-14,2013-07-19,2014-01-14,2014-01-14T11:10,,,,,,,,,,,,81,NA,2013-07-11,-8,71,YEARS,>64,M,WHITE,White,NOT HISPANIC OR LATINO,Y,Xanomeline High Dose,Xan_Hi,Xanomeline High Dose,Xan_Hi,Xanomeline High Dose,Xanomeline High Dose,2013-07-19,2013-07-19T00:00:00Z,H,2014-01-14,2014-01-14T23:59:59Z,H,COMPLETED,2014-01-14,,2013-07-19,2014-01-14,180,,,,,2013-09-10,54,Week 8,8,General Score 01,QSG01,NEI VFQ-25,Averaged Result,42.5,,47.5,-5,-10.526315789473683,,Y,Y,,,,,,,,,,,,,8,WEEK 8,,,
280,CDISCPILOT01,01-701-1028,1028,701,USA,,2013-07-19,2014-01-14,2013-07-19,2014-01-14,2014-01-14T11:10,,,,,,,,,,,,82,NA,2013-07-11,-8,71,YEARS,>64,M,WHITE,White,NOT HISPANIC OR LATINO,Y,Xanomeline High Dose,Xan_Hi,Xanomeline High Dose,Xan_Hi,Xanomeline High Dose,Xanomeline High Dose,2013-07-19,2013-07-19T00:00:00Z,H,2014-01-14,2014-01-14T23:59:59Z,H,COMPLETED,2014-01-14,,2013-07-19,2014-01-14,180,,,,,2013-09-24,68,Week 10 (T),10,General Score 01,QSG01,NEI VFQ-25,Averaged Result,10,,47.5,-37.5,-78.94736842105263,,Y,Y,,,,,,,,,,,,,8.1,WEEK 10 (T),,,
281,CDISCPILOT01,01-701-1028,1028,701,USA,,2013-07-19,2014-01-14,2013-07-19,2014-01-14,2014-01-14T11:10,,,,,,,,,,,,83,NA,2013-07-11,-8,71,YEARS,>64,M,WHITE,White,NOT HISPANIC OR LATINO,Y,Xanomeline High Dose,Xan_Hi,Xanomeline High Dose,Xan_Hi,Xanomeline High Dose,Xanomeline High Dose,2013-07-19,2013-07-19T00:00:00Z,H,2014-01-14,2014-01-14T23:59:59Z,H,COMPLETED,2014-01-14,,2013-07-19,2014-01-14,180,,,,,2013-10-09,83,Week 12,12,General Score 01,QSG01,NEI VFQ-25,Averaged Result,52.5,,47.5,5,10.526315789473683,,Y,Y,,,,,,,,,,,,,9,WEEK 12,,,
282,CDISCPILOT01,01-701-1028,1028,701,USA,,2013-07-19,2014-01-14,2013-07-19,2014-01-14,2014-01-14T11:10,,,,,,,,,,,,84,NA,2013-07-11,-8,71,YEARS,>64,M,WHITE,White,NOT HISPANIC OR LATINO,Y,Xanomeline High Dose,Xan_Hi,Xanomeline High Dose,Xan_Hi,Xanomeline High Dose,Xanomeline High Dose,2013-07-19,2013-07-19T00:00:00Z,H,2014-01-14,2014-01-14T23:59:59Z,H,COMPLETED,2014-01-14,,2013-07-19,2014-01-14,180,,,,,2013-10-23,97,Week 14 (T),14,General Score 01,QSG01,NEI VFQ-25,Averaged Result,47.5,,47.5,0,0,,Y,Y,,,,,,,,,,,,,9.1,WEEK 14 (T),,,
283,CDISCPILOT01,01-701-1028,1028,701,USA,,2013-07-19,2014-01-14,2013-07-19,2014-01-14,2014-01-14T11:10,,,,,,,,,,,,85,NA,2013-07-11,-8,71,YEARS,>64,M,WHITE,White,NOT HISPANIC OR LATINO,Y,Xanomeline High Dose,Xan_Hi,Xanomeline High Dose,Xan_Hi,Xanomeline High Dose,Xanomeline High Dose,2013-07-19,2013-07-19T00:00:00Z,H,2014-01-14,2014-01-14T23:59:59Z,H,COMPLETED,2014-01-14,,2013-07-19,2014-01-14,180,,,,,2013-11-06,111,Week 16,16,General Score 01,QSG01,NEI VFQ-25,Averaged Result,70,,47.5,22.5,47.368421052631575,,Y,Y,,,,,,,,,,,,,10,WEEK 16,,,
284,CDISCPILOT01,01-701-1028,1028,701,USA,,2013-07-19,2014-01-14,2013-07-19,2014-01-14,2014-01-14T11:10,,,,,,,,,,,,86,NA,2013-07-11,-8,71,YEARS,>64,M,WHITE,White,NOT HISPANIC OR LATINO,Y,Xanomeline High Dose,Xan_Hi,Xanomeline High Dose,Xan_Hi,Xanomeline High Dose,Xanomeline High Dose,2013-07-19,2013-07-19T00:00:00Z,H,2014-01-14,2014-01-14T23:59:59Z,H,COMPLETED,2014-01-14,,2013-07-19,2014-01-14,180,,,,,2013-11-20,125,Week 18 (T),18,General Score 01,QSG01,NEI VFQ-25,Averaged Result,67.5,,47.5,20,42.10526315789473,,Y,Y,,,,,,,,,,,,,10.1,WEEK 18 (T),,,
285,CDISCPILOT01,01-701-1028,1028,701,USA,,2013-07-19,2014-01-14,2013-07-19,2014-01-14,2014-01-14T11:10,,,,,,,,,,,,87,NA,2013-07-11,-8,71,YEARS,>64,M,WHITE,White,NOT HISPANIC OR LATINO,Y,Xanomeline High Dose,Xan_Hi,Xanomeline High Dose,Xan_Hi,Xanomeline High Dose,Xanomeline High Dose,2013-07-19,2013-07-19T00:00:00Z,H,2014-01-14,2014-01-14T23:59:59Z,H,COMPLETED,2014-01-14,,2013-07-19,2014-01-14,180,,,,,2013-12-04,139,Week 20,20,General Score 01,QSG01,NEI VFQ-25,Averaged Result,45,,47.5,-2.5,-5.263157894736842,,Y,Y,,,,,,,,,,,,,11,WEEK 20,,,
286,CDISCPILOT01,01-701-1028,1028,701,USA,,2013-07-19,2014-01-14,2013-07-19,2014-01-14,2014-01-14T11:10,,,,,,,,,,,,88,NA,2013-07-11,-8,71,YEARS,>64,M,WHITE,White,NOT HISPANIC OR LATINO,Y,Xanomeline High Dose,Xan_Hi,Xanomeline High Dose,Xan_Hi,Xanomeline High Dose,Xanomeline High Dose,2013-07-19,2013-07-19T00:00:00Z,H,2014-01-14,2014-01-14T23:59:59Z,H,COMPLETED,2014-01-14,,2013-07-19,2014-01-14,180,,,,,2013-12-18,153,Week 22 (T),22,General Score 01,QSG01,NEI VFQ-25,Averaged Result,55,,47.5,7.5,15.789473684210526,,Y,Y,,,,,,,,,,,,,11.1,WEEK 22 (T),,,
287,CDISCPILOT01,01-701-1028,1028,701,USA,,2013-07-19,2014-01-14,2013-07-19,2014-01-14,2014-01-14T11:10,,,,,,,,,,,,89,NA,2013-07-11,-8,71,YEARS,>64,M,WHITE,White,NOT HISPANIC OR LATINO,Y,Xanomeline High Dose,Xan_Hi,Xanomeline High Dose,Xan_Hi,Xanomeline High Dose,Xanomeline High Dose,2013-07-19,2013-07-19T00:00:00Z,H,2014-01-14,2014-01-14T23:59:59Z,H,COMPLETED,2014-01-14,,2013-07-19,2014-01-14,180,,,,,2014-01-06,172,Week 24,24,General Score 01,QSG01,NEI VFQ-25,Averaged Result,52.5,,47.5,5,10.526315789473683,,Y,Y,,,,,,,,,,,,,12,WEEK 24,,,
288,CDISCPILOT01,01-701-1028,1028,701,USA,,2013-07-19,2014-01-14,2013-07-19,2014-01-14,2014-01-14T11:10,,,,,,,,,,,,90,NA,2013-07-11,-8,71,YEARS,>64,M,WHITE,White,NOT HISPANIC OR LATINO,Y,Xanomeline High Dose,Xan_Hi,Xanomeline High Dose,Xan_Hi,Xanomeline High Dose,Xanomeline High Dose,2013-07-19,2013-07-19T00:00:00Z,H,2014-01-14,2014-01-14T23:59:59Z,H,COMPLETED,2014-01-14,,2013-07-19,2014-01-14,180,,,,,2014-01-14,180,Week 26,26,General Score 01,QSG01,NEI VFQ-25,Averaged Result,90,,47.5,42.5,89.47368421052632,,Y,Y,,,,,,,,,,,,,13,WEEK 26,,,
289,CDISCPILOT01,01-701-1028,1028,701,USA,,2013-07-19,2014-01-14,2013-07-19,2014-01-14,2014-01-14T11:10,,,,,,,,,,,,91,NA,2013-07-11,-8,71,YEARS,>64,M,WHITE,White,NOT HISPANIC OR LATINO,Y,Xanomeline High Dose,Xan_Hi,Xanomeline High Dose,Xan_Hi,Xanomeline High Dose,Xanomeline High Dose,2013-07-19,2013-07-19T00:00:00Z,H,2014-01-14,2014-01-14T23:59:59Z,H,COMPLETED,2014-01-14,,2013-07-19,2014-01-14,180,,,,,2013-07-11,-8,,,General Score 02,QSG02,NEI VFQ-25,Averaged Result,25,,25,0,0,,,,,,,,,,,,,,,,1,SCREENING 1,,,
290,CDISCPILOT01,01-701-1028,1028,701,USA,,2013-07-19,2014-01-14,2013-07-19,2014-01-14,2014-01-14T11:10,,,,,,,,,,,,92,NA,2013-07-11,-8,71,YEARS,>64,M,WHITE,White,NOT HISPANIC OR LATINO,Y,Xanomeline High Dose,Xan_Hi,Xanomeline High Dose,Xan_Hi,Xanomeline High Dose,Xanomeline High Dose,2013-07-19,2013-07-19T00:00:00Z,H,2014-01-14,2014-01-14T23:59:59Z,H,COMPLETED,2014-01-14,,2013-07-19,2014-01-14,180,,,,,2013-07-19,1,Baseline,0,General Score 02,QSG02,NEI VFQ-25,Averaged Result,25,,25,0,0,Y,,,,,,,,,,,,,,,3,BASELINE,,,
291,CDISCPILOT01,01-701-1028,1028,701,USA,,2013-07-19,2014-01-14,2013-07-19,2014-01-14,2014-01-14T11:10,,,,,,,,,,,,93,NA,2013-07-11,-8,71,YEARS,>64,M,WHITE,White,NOT HISPANIC OR LATINO,Y,Xanomeline High Dose,Xan_Hi,Xanomeline High Dose,Xan_Hi,Xanomeline High Dose,Xanomeline High Dose,2013-07-19,2013-07-19T00:00:00Z,H,2014-01-14,2014-01-14T23:59:59Z,H,COMPLETED,2014-01-14,,2013-07-19,2014-01-14,180,,,,,2013-08-01,14,Week 2,2,General Score 02,QSG02,NEI VFQ-25,Averaged Result,12.5,,25,-12.5,-50,,Y,Y,,,,,,,,,,,,,4,WEEK 2,,,
292,CDISCPILOT01,01-701-1028,1028,701,USA,,2013-07-19,2014-01-14,2013-07-19,2014-01-14,2014-01-14T11:10,,,,,,,,,,,,94,NA,2013-07-11,-8,71,YEARS,>64,M,WHITE,White,NOT HISPANIC OR LATINO,Y,Xanomeline High Dose,Xan_Hi,Xanomeline High Dose,Xan_Hi,Xanomeline High Dose,Xanomeline High Dose,2013-07-19,2013-07-19T00:00:00Z,H,2014-01-14,2014-01-14T23:59:59Z,H,COMPLETED,2014-01-14,,2013-07-19,2014-01-14,180,,,,,2013-08-14,27,Week 4,4,General Score 02,QSG02,NEI VFQ-25,Averaged Result,37.5,,25,12.5,50,,Y,Y,,,,,,,,,,,,,5,WEEK 4,,,
293,CDISCPILOT01,01-701-1028,1028,701,USA,,2013-07-19,2014-01-14,2013-07-19,2014-01-14,2014-01-14T11:10,,,,,,,,,,,,95,NA,2013-07-11,-8,71,YEARS,>64,M,WHITE,White,NOT HISPANIC OR LATINO,Y,Xanomeline High Dose,Xan_Hi,Xanomeline High Dose,Xan_Hi,Xanomeline High Dose,Xanomeline High Dose,2013-07-19,2013-07-19T00:00:00Z,H,2014-01-14,2014-01-14T23:59:59Z,H,COMPLETED,2014-01-14,,2013-07-19,2014-01-14,180,,,,,2013-08-29,42,Week 6,6,General Score 02,QSG02,NEI VFQ-25,Averaged Result,62.5,,25,37.5,150,,Y,Y,,,,,,,,,,,,,7,WEEK 6,,,
294,CDISCPILOT01,01-701-1028,1028,701,USA,,2013-07-19,2014-01-14,2013-07-19,2014-01-14,2014-01-14T11:10,,,,,,,,,,,,96,NA,2013-07-11,-8,71,YEARS,>64,M,WHITE,White,NOT HISPANIC OR LATINO,Y,Xanomeline High Dose,Xan_Hi,Xanomeline High Dose,Xan_Hi,Xanomeline High Dose,Xanomeline High Dose,2013-07-19,2013-07-19T00:00:00Z,H,2014-01-14,2014-01-14T23:59:59Z,H,COMPLETED,2014-01-14,,2013-07-19,2014-01-14,180,,,,,2013-09-10,54,Week 8,8,General Score 02,QSG02,NEI VFQ-25,Averaged Result,50,,25,25,100,,Y,Y,,,,,,,,,,,,,8,WEEK 8,,,
295,CDISCPILOT01,01-701-1028,1028,701,USA,,2013-07-19,2014-01-14,2013-07-19,2014-01-14,2014-01-14T11:10,,,,,,,,,,,,97,NA,2013-07-11,-8,71,YEARS,>64,M,WHITE,White,NOT HISPANIC OR LATINO,Y,Xanomeline High Dose,Xan_Hi,Xanomeline High Dose,Xan_Hi,Xanomeline High Dose,Xanomeline High Dose,2013-07-19,2013-07-19T00:00:00Z,H,2014-01-14,2014-01-14T23:59:59Z,H,COMPLETED,2014-01-14,,2013-07-19,2014-01-14,180,,,,,2013-09-24,68,Week 10 (T),10,General Score 02,QSG02,NEI VFQ-25,Averaged Result,37.5,,25,12.5,50,,Y,Y,,,,,,,,,,,,,8.1,WEEK 10 (T),,,
296,CDISCPILOT01,01-701-1028,1028,701,USA,,2013-07-19,2014-01-14,2013-07-19,2014-01-14,2014-01-14T11:10,,,,,,,,,,,,98,NA,2013-07-11,-8,71,YEARS,>64,M,WHITE,White,NOT HISPANIC OR LATINO,Y,Xanomeline High Dose,Xan_Hi,Xanomeline High Dose,Xan_Hi,Xanomeline High Dose,Xanomeline High Dose,2013-07-19,2013-07-19T00:00:00Z,H,2014-01-14,2014-01-14T23:59:59Z,H,COMPLETED,2014-01-14,,2013-07-19,2014-01-14,180,,,,,2013-10-09,83,Week 12,12,General Score 02,QSG02,NEI VFQ-25,Averaged Result,37.5,,25,12.5,50,,Y,Y,,,,,,,,,,,,,9,WEEK 12,,,
297,CDISCPILOT01,01-701-1028,1028,701,USA,,2013-07-19,2014-01-14,2013-07-19,2014-01-14,2014-01-14T11:10,,,,,,,,,,,,99,NA,2013-07-11,-8,71,YEARS,>64,M,WHITE,White,NOT HISPANIC OR LATINO,Y,Xanomeline High Dose,Xan_Hi,Xanomeline High Dose,Xan_Hi,Xanomeline High Dose,Xanomeline High Dose,2013-07-19,2013-07-19T00:00:00Z,H,2014-01-14,2014-01-14T23:59:59Z,H,COMPLETED,2014-01-14,,2013-07-19,2014-01-14,180,,,,,2013-10-23,97,Week 14 (T),14,General Score 02,QSG02,NEI VFQ-25,Averaged Result,25,,25,0,0,,Y,Y,,,,,,,,,,,,,9.1,WEEK 14 (T),,,
298,CDISCPILOT01,01-701-1028,1028,701,USA,,2013-07-19,2014-01-14,2013-07-19,2014-01-14,2014-01-14T11:10,,,,,,,,,,,,100,NA,2013-07-11,-8,71,YEARS,>64,M,WHITE,White,NOT HISPANIC OR LATINO,Y,Xanomeline High Dose,Xan_Hi,Xanomeline High Dose,Xan_Hi,Xanomeline High Dose,Xanomeline High Dose,2013-07-19,2013-07-19T00:00:00Z,H,2014-01-14,2014-01-14T23:59:59Z,H,COMPLETED,2014-01-14,,2013-07-19,2014-01-14,180,,,,,2013-11-06,111,Week 16,16,General Score 02,QSG02,NEI VFQ-25,Averaged Result,25,,25,0,0,,Y,Y,,,,,,,,,,,,,10,WEEK 16,,,
299,CDISCPILOT01,01-701-1028,1028,701,USA,,2013-07-19,2014-01-14,2013-07-19,2014-01-14,2014-01-14T11:10,,,,,,,,,,,,101,NA,2013-07-11,-8,71,YEARS,>64,M,WHITE,White,NOT HISPANIC OR LATINO,Y,Xanomeline High Dose,Xan_Hi,Xanomeline High Dose,Xan_Hi,Xanomeline High Dose,Xanomeline High Dose,2013-07-19,2013-07-19T00:00:00Z,H,2014-01-14,2014-01-14T23:59:59Z,H,COMPLETED,2014-01-14,,2013-07-19,2014-01-14,180,,,,,2013-11-20,125,Week 18 (T),18,General Score 02,QSG02,NEI VFQ-25,Averaged Result,25,,25,0,0,,Y,Y,,,,,,,,,,,,,10.1,WEEK 18 (T),,,
300,CDISCPILOT01,01-701-1028,1028,701,USA,,2013-07-19,2014-01-14,2013-07-19,2014-01-14,2014-01-14T11:10,,,,,,,,,,,,102,NA,2013-07-11,-8,71,YEARS,>64,M,WHITE,White,NOT HISPANIC OR LATINO,Y,Xanomeline High Dose,Xan_Hi,Xanomeline High Dose,Xan_Hi,Xanomeline High Dose,Xanomeline High Dose,2013-07-19,2013-07-19T00:00:00Z,H,2014-01-14,2014-01-14T23:59:59Z,H,COMPLETED,2014-01-14,,2013-07-19,2014-01-14,180,,,,,2013-12-04,139,Week 20,20,General Score 02,QSG02,NEI VFQ-25,Averaged Result,50,,25,25,100,,Y,Y,,,,,,,,,,,,,11,WEEK 20,,,
301,CDISCPILOT01,01-701-1028,1028,701,USA,,2013-07-19,2014-01-14,2013-07-19,2014-01-14,2014-01-14T11:10,,,,,,,,,,,,103,NA,2013-07-11,-8,71,YEARS,>64,M,WHITE,White,NOT HISPANIC OR LATINO,Y,Xanomeline High Dose,Xan_Hi,Xanomeline High Dose,Xan_Hi,Xanomeline High Dose,Xanomeline High Dose,2013-07-19,2013-07-19T00:00:00Z,H,2014-01-14,2014-01-14T23:59:59Z,H,COMPLETED,2014-01-14,,2013-07-19,2014-01-14,180,,,,,2013-12-18,153,Week 22 (T),22,General Score 02,QSG02,NEI VFQ-25,Averaged Result,37.5,,25,12.5,50,,Y,Y,,,,,,,,,,,,,11.1,WEEK 22 (T),,,
302,CDISCPILOT01,01-701-1028,1028,701,USA,,2013-07-19,2014-01-14,2013-07-19,2014-01-14,2014-01-14T11:10,,,,,,,,,,,,104,NA,2013-07-11,-8,71,YEARS,>64,M,WHITE,White,NOT HISPANIC OR LATINO,Y,Xanomeline High Dose,Xan_Hi,Xanomeline High Dose,Xan_Hi,Xanomeline High Dose,Xanomeline High Dose,2013-07-19,2013-07-19T00:00:00Z,H,2014-01-14,2014-01-14T23:59:59Z,H,COMPLETED,2014-01-14,,2013-07-19,2014-01-14,180,,,,,2014-01-06,172,Week 24,24,General Score 02,QSG02,NEI VFQ-25,Averaged Result,62.5,,25,37.5,150,,Y,Y,,,,,,,,,,,,,12,WEEK 24,,,
303,CDISCPILOT01,01-701-1028,1028,701,USA,,2013-07-19,2014-01-14,2013-07-19,2014-01-14,2014-01-14T11:10,,,,,,,,,,,,105,NA,2013-07-11,-8,71,YEARS,>64,M,WHITE,White,NOT HISPANIC OR LATINO,Y,Xanomeline High Dose,Xan_Hi,Xanomeline High Dose,Xan_Hi,Xanomeline High Dose,Xanomeline High Dose,2013-07-19,2013-07-19T00:00:00Z,H,2014-01-14,2014-01-14T23:59:59Z,H,COMPLETED,2014-01-14,,2013-07-19,2014-01-14,180,,,,,2014-01-14,180,Week 26,26,General Score 02,QSG02,NEI VFQ-25,Averaged Result,50,,25,25,100,,Y,Y,,,,,,,,,,,,,13,WEEK 26,,,
304,CDISCPILOT01,01-701-1028,1028,701,USA,QS,2013-07-19,2014-01-14,2013-07-19,2014-01-14,2014-01-14T11:10,,,,,,,,,,,,106,NA,2013-07-11,-8,71,YEARS,>64,M,WHITE,White,NOT HISPANIC OR LATINO,Y,Xanomeline High Dose,Xan_Hi,Xanomeline High Dose,Xan_Hi,Xanomeline High Dose,Xanomeline High Dose,2013-07-19,2013-07-19T00:00:00Z,H,2014-01-14,2014-01-14T23:59:59Z,H,COMPLETED,2014-01-14,,2013-07-19,2014-01-14,180,,,,,2013-07-11,-8,,,Overall Health,VFQ1,NEI VFQ-25,Original Response,2,GOOD,2,0,0,,,,43,VFQ1,Your Overall Health Is,NEI VFQ-25,Original Response,GOOD,,GOOD,2,,,,1,SCREENING 1,-7,2013-07-11,-8
305,CDISCPILOT01,01-701-1028,1028,701,USA,QS,2013-07-19,2014-01-14,2013-07-19,2014-01-14,2014-01-14T11:10,,,,,,,,,,,,107,NA,2013-07-11,-8,71,YEARS,>64,M,WHITE,White,NOT HISPANIC OR LATINO,Y,Xanomeline High Dose,Xan_Hi,Xanomeline High Dose,Xan_Hi,Xanomeline High Dose,Xanomeline High Dose,2013-07-19,2013-07-19T00:00:00Z,H,2014-01-14,2014-01-14T23:59:59Z,H,COMPLETED,2014-01-14,,2013-07-19,2014-01-14,180,,,,,2013-07-19,1,Baseline,0,Overall Health,VFQ1,NEI VFQ-25,Original Response,2,GOOD,2,0,0,Y,,,8,VFQ1,Your Overall Health Is,NEI VFQ-25,Original Response,GOOD,,GOOD,2,,Y,,3,BASELINE,1,2013-07-19,1
306,CDISCPILOT01,01-701-1028,1028,701,USA,QS,2013-07-19,2014-01-14,2013-07-19,2014-01-14,2014-01-14T11:10,,,,,,,,,,,,108,NA,2013-07-11,-8,71,YEARS,>64,M,WHITE,White,NOT HISPANIC OR LATINO,Y,Xanomeline High Dose,Xan_Hi,Xanomeline High Dose,Xan_Hi,Xanomeline High Dose,Xanomeline High Dose,2013-07-19,2013-07-19T00:00:00Z,H,2014-01-14,2014-01-14T23:59:59Z,H,COMPLETED,2014-01-14,,2013-07-19,2014-01-14,180,,,,,2013-08-01,14,Week 2,2,Overall Health,VFQ1,NEI VFQ-25,Original Response,5,VERY POOR,2,3,150,,Y,Y,219,VFQ1,Your Overall Health Is,NEI VFQ-25,Original Response,VERY POOR,,VERY POOR,5,,,,4,WEEK 2,14,2013-08-01,14
307,CDISCPILOT01,01-701-1028,1028,701,USA,QS,2013-07-19,2014-01-14,2013-07-19,2014-01-14,2014-01-14T11:10,,,,,,,,,,,,109,NA,2013-07-11,-8,71,YEARS,>64,M,WHITE,White,NOT HISPANIC OR LATINO,Y,Xanomeline High Dose,Xan_Hi,Xanomeline High Dose,Xan_Hi,Xanomeline High Dose,Xanomeline High Dose,2013-07-19,2013-07-19T00:00:00Z,H,2014-01-14,2014-01-14T23:59:59Z,H,COMPLETED,2014-01-14,,2013-07-19,2014-01-14,180,,,,,2013-08-14,27,Week 4,4,Overall Health,VFQ1,NEI VFQ-25,Original Response,2,GOOD,2,0,0,,Y,Y,371,VFQ1,Your Overall Health Is,NEI VFQ-25,Original Response,GOOD,,GOOD,2,,,,5,WEEK 4,28,2013-08-14,27
308,CDISCPILOT01,01-701-1028,1028,701,USA,QS,2013-07-19,2014-01-14,2013-07-19,2014-01-14,2014-01-14T11:10,,,,,,,,,,,,110,NA,2013-07-11,-8,71,YEARS,>64,M,WHITE,White,NOT HISPANIC OR LATINO,Y,Xanomeline High Dose,Xan_Hi,Xanomeline High Dose,Xan_Hi,Xanomeline High Dose,Xanomeline High Dose,2013-07-19,2013-07-19T00:00:00Z,H,2014-01-14,2014-01-14T23:59:59Z,H,COMPLETED,2014-01-14,,2013-07-19,2014-01-14,180,,,,,2013-08-29,42,Week 6,6,Overall Health,VFQ1,NEI VFQ-25,Original Response,2,GOOD,2,0,0,,Y,Y,405,VFQ1,Your Overall Health Is,NEI VFQ-25,Original Response,GOOD,,GOOD,2,,,,7,WEEK 6,42,2013-08-29,42
309,CDISCPILOT01,01-701-1028,1028,701,USA,QS,2013-07-19,2014-01-14,2013-07-19,2014-01-14,2014-01-14T11:10,,,,,,,,,,,,111,NA,2013-07-11,-8,71,YEARS,>64,M,WHITE,White,NOT HISPANIC OR LATINO,Y,Xanomeline High Dose,Xan_Hi,Xanomeline High Dose,Xan_Hi,Xanomeline High Dose,Xanomeline High Dose,2013-07-19,2013-07-19T00:00:00Z,H,2014-01-14,2014-01-14T23:59:59Z,H,COMPLETED,2014-01-14,,2013-07-19,2014-01-14,180,,,,,2013-09-10,54,Week 8,8,Overall Health,VFQ1,NEI VFQ-25,Original Response,4,VERY GOOD,2,2,100,,Y,Y,416,VFQ1,Your Overall Health Is,NEI VFQ-25,Original Response,VERY GOOD,,VERY GOOD,4,,,,8,WEEK 8,56,2013-09-10,54
310,CDISCPILOT01,01-701-1028,1028,701,USA,QS,2013-07-19,2014-01-14,2013-07-19,2014-01-14,2014-01-14T11:10,,,,,,,,,,,,112,NA,2013-07-11,-8,71,YEARS,>64,M,WHITE,White,NOT HISPANIC OR LATINO,Y,Xanomeline High Dose,Xan_Hi,Xanomeline High Dose,Xan_Hi,Xanomeline High Dose,Xanomeline High Dose,2013-07-19,2013-07-19T00:00:00Z,H,2014-01-14,2014-01-14T23:59:59Z,H,COMPLETED,2014-01-14,,2013-07-19,2014-01-14,180,,,,,2013-09-24,68,Week 10 (T),10,Overall Health,VFQ1,NEI VFQ-25,Original Response,5,VERY POOR,2,3,150,,Y,Y,83,VFQ1,Your Overall Health Is,NEI VFQ-25,Original Response,VERY POOR,,VERY POOR,5,,,,8.1,WEEK 10 (T),70,2013-09-24,68
311,CDISCPILOT01,01-701-1028,1028,701,USA,QS,2013-07-19,2014-01-14,2013-07-19,2014-01-14,2014-01-14T11:10,,,,,,,,,,,,113,NA,2013-07-11,-8,71,YEARS,>64,M,WHITE,White,NOT HISPANIC OR LATINO,Y,Xanomeline High Dose,Xan_Hi,Xanomeline High Dose,Xan_Hi,Xanomeline High Dose,Xanomeline High Dose,2013-07-19,2013-07-19T00:00:00Z,H,2014-01-14,2014-01-14T23:59:59Z,H,COMPLETED,2014-01-14,,2013-07-19,2014-01-14,180,,,,,2013-10-09,83,Week 12,12,Overall Health,VFQ1,NEI VFQ-25,Original Response,4,VERY GOOD,2,2,100,,Y,Y,107,VFQ1,Your Overall Health Is,NEI VFQ-25,Original Response,VERY GOOD,,VERY GOOD,4,,,,9,WEEK 12,84,2013-10-09,83
312,CDISCPILOT01,01-701-1028,1028,701,USA,QS,2013-07-19,2014-01-14,2013-07-19,2014-01-14,2014-01-14T11:10,,,,,,,,,,,,114,NA,2013-07-11,-8,71,YEARS,>64,M,WHITE,White,NOT HISPANIC OR LATINO,Y,Xanomeline High Dose,Xan_Hi,Xanomeline High Dose,Xan_Hi,Xanomeline High Dose,Xanomeline High Dose,2013-07-19,2013-07-19T00:00:00Z,H,2014-01-14,2014-01-14T23:59:59Z,H,COMPLETED,2014-01-14,,2013-07-19,2014-01-14,180,,,,,2013-10-23,97,Week 14 (T),14,Overall Health,VFQ1,NEI VFQ-25,Original Response,2,GOOD,2,0,0,,Y,Y,139,VFQ1,Your Overall Health Is,NEI VFQ-25,Original Response,GOOD,,GOOD,2,,,,9.1,WEEK 14 (T),98,2013-10-23,97
313,CDISCPILOT01,01-701-1028,1028,701,USA,QS,2013-07-19,2014-01-14,2013-07-19,2014-01-14,2014-01-14T11:10,,,,,,,,,,,,115,NA,2013-07-11,-8,71,YEARS,>64,M,WHITE,White,NOT HISPANIC OR LATINO,Y,Xanomeline High Dose,Xan_Hi,Xanomeline High Dose,Xan_Hi,Xanomeline High Dose,Xanomeline High Dose,2013-07-19,2013-07-19T00:00:00Z,H,2014-01-14,2014-01-14T23:59:59Z,H,COMPLETED,2014-01-14,,2013-07-19,2014-01-14,180,,,,,2013-11-06,111,Week 16,16,Overall Health,VFQ1,NEI VFQ-25,Original Response,1,FAIR,2,-1,-50,,Y,Y,153,VFQ1,Your Overall Health Is,NEI VFQ-25,Original Response,FAIR,,FAIR,1,,,,10,WEEK 16,112,2013-11-06,111
314,CDISCPILOT01,01-701-1028,1028,701,USA,QS,2013-07-19,2014-01-14,2013-07-19,2014-01-14,2014-01-14T11:10,,,,,,,,,,,,116,NA,2013-07-11,-8,71,YEARS,>64,M,WHITE,White,NOT HISPANIC OR LATINO,Y,Xanomeline High Dose,Xan_Hi,Xanomeline High Dose,Xan_Hi,Xanomeline High Dose,Xanomeline High Dose,2013-07-19,2013-07-19T00:00:00Z,H,2014-01-14,2014-01-14T23:59:59Z,H,COMPLETED,2014-01-14,,2013-07-19,2014-01-14,180,,,,,2013-11-20,125,Week 18 (T),18,Overall Health,VFQ1,NEI VFQ-25,Original Response,2,GOOD,2,0,0,,Y,Y,195,VFQ1,Your Overall Health Is,NEI VFQ-25,Original Response,GOOD,,GOOD,2,,,,10.1,WEEK 18 (T),126,2013-11-20,125
315,CDISCPILOT01,01-701-1028,1028,701,USA,QS,2013-07-19,2014-01-14,2013-07-19,2014-01-14,2014-01-14T11:10,,,,,,,,,,,,117,NA,2013-07-11,-8,71,YEARS,>64,M,WHITE,White,NOT HISPANIC OR LATINO,Y,Xanomeline High Dose,Xan_Hi,Xanomeline High Dose,Xan_Hi,Xanomeline High Dose,Xanomeline High Dose,2013-07-19,2013-07-19T00:00:00Z,H,2014-01-14,2014-01-14T23:59:59Z,H,COMPLETED,2014-01-14,,2013-07-19,2014-01-14,180,,,,,2013-12-04,139,Week 20,20,Overall Health,VFQ1,NEI VFQ-25,Original Response,3,POOR,2,1,50,,Y,Y,241,VFQ1,Your Overall Health Is,NEI VFQ-25,Original Response,POOR,,POOR,3,,,,11,WEEK 20,140,2013-12-04,139
316,CDISCPILOT01,01-701-1028,1028,701,USA,QS,2013-07-19,2014-01-14,2013-07-19,2014-01-14,2014-01-14T11:10,,,,,,,,,,,,118,NA,2013-07-11,-8,71,YEARS,>64,M,WHITE,White,NOT HISPANIC OR LATINO,Y,Xanomeline High Dose,Xan_Hi,Xanomeline High Dose,Xan_Hi,Xanomeline High Dose,Xanomeline High Dose,2013-07-19,2013-07-19T00:00:00Z,H,2014-01-14,2014-01-14T23:59:59Z,H,COMPLETED,2014-01-14,,2013-07-19,2014-01-14,180,,,,,2013-12-18,153,Week 22 (T),22,Overall Health,VFQ1,NEI VFQ-25,Original Response,3,POOR,2,1,50,,Y,Y,272,VFQ1,Your Overall Health Is,NEI VFQ-25,Original Response,POOR,,POOR,3,,,,11.1,WEEK 22 (T),154,2013-12-18,153
317,CDISCPILOT01,01-701-1028,1028,701,USA,QS,2013-07-19,2014-01-14,2013-07-19,2014-01-14,2014-01-14T11:10,,,,,,,,,,,,119,NA,2013-07-11,-8,71,YEARS,>64,M,WHITE,White,NOT HISPANIC OR LATINO,Y,Xanomeline High Dose,Xan_Hi,Xanomeline High Dose,Xan_Hi,Xanomeline High Dose,Xanomeline High Dose,2013-07-19,2013-07-19T00:00:00Z,H,2014-01-14,2014-01-14T23:59:59Z,H,COMPLETED,2014-01-14,,2013-07-19,2014-01-14,180,,,,,2014-01-06,172,Week 24,24,Overall Health,VFQ1,NEI VFQ-25,Original Response,4,VERY GOOD,2,2,100,,Y,Y,295,VFQ1,Your Overall Health Is,NEI VFQ-25,Original Response,VERY GOOD,,VERY GOOD,4,,,,12,WEEK 24,168,2014-01-06,172
318,CDISCPILOT01,01-701-1028,1028,701,USA,QS,2013-07-19,2014-01-14,2013-07-19,2014-01-14,2014-01-14T11:10,,,,,,,,,,,,120,NA,2013-07-11,-8,71,YEARS,>64,M,WHITE,White,NOT HISPANIC OR LATINO,Y,Xanomeline High Dose,Xan_Hi,Xanomeline High Dose,Xan_Hi,Xanomeline High Dose,Xanomeline High Dose,2013-07-19,2013-07-19T00:00:00Z,H,2014-01-14,2014-01-14T23:59:59Z,H,COMPLETED,2014-01-14,,2013-07-19,2014-01-14,180,,,,,2014-01-14,180,Week 26,26,Overall Health,VFQ1,NEI VFQ-25,Original Response,1,FAIR,2,-1,-50,,Y,Y,324,VFQ1,Your Overall Health Is,NEI VFQ-25,Original Response,FAIR,,FAIR,1,,,,13,WEEK 26,182,2014-01-14,180
319,CDISCPILOT01,01-701-1028,1028,701,USA,QS,2013-07-19,2014-01-14,2013-07-19,2014-01-14,2014-01-14T11:10,,,,,,,,,,,,121,NA,2013-07-11,-8,71,YEARS,>64,M,WHITE,White,NOT HISPANIC OR LATINO,Y,Xanomeline High Dose,Xan_Hi,Xanomeline High Dose,Xan_Hi,Xanomeline High Dose,Xanomeline High Dose,2013-07-19,2013-07-19T00:00:00Z,H,2014-01-14,2014-01-14T23:59:59Z,H,COMPLETED,2014-01-14,,2013-07-19,2014-01-14,180,,,,,2013-07-11,-8,,,Eyesight in Both Eyes,VFQ2,NEI VFQ-25,Original Response,2,GOOD,5,-3,-60,,,,49,VFQ2,Eyesight Using Both Eyes Is,NEI VFQ-25,Original Response,GOOD,,GOOD,2,,,,1,SCREENING 1,-7,2013-07-11,-8
320,CDISCPILOT01,01-701-1028,1028,701,USA,QS,2013-07-19,2014-01-14,2013-07-19,2014-01-14,2014-01-14T11:10,,,,,,,,,,,,122,NA,2013-07-11,-8,71,YEARS,>64,M,WHITE,White,NOT HISPANIC OR LATINO,Y,Xanomeline High Dose,Xan_Hi,Xanomeline High Dose,Xan_Hi,Xanomeline High Dose,Xanomeline High Dose,2013-07-19,2013-07-19T00:00:00Z,H,2014-01-14,2014-01-14T23:59:59Z,H,COMPLETED,2014-01-14,,2013-07-19,2014-01-14,180,,,,,2013-07-19,1,Baseline,0,Eyesight in Both Eyes,VFQ2,NEI VFQ-25,Original Response,5,VERY POOR,5,0,0,Y,,,3,VFQ2,Eyesight Using Both Eyes Is,NEI VFQ-25,Original Response,VERY POOR,,VERY POOR,5,,Y,,3,BASELINE,1,2013-07-19,1
321,CDISCPILOT01,01-701-1028,1028,701,USA,QS,2013-07-19,2014-01-14,2013-07-19,2014-01-14,2014-01-14T11:10,,,,,,,,,,,,123,NA,2013-07-11,-8,71,YEARS,>64,M,WHITE,White,NOT HISPANIC OR LATINO,Y,Xanomeline High Dose,Xan_Hi,Xanomeline High Dose,Xan_Hi,Xanomeline High Dose,Xanomeline High Dose,2013-07-19,2013-07-19T00:00:00Z,H,2014-01-14,2014-01-14T23:59:59Z,H,COMPLETED,2014-01-14,,2013-07-19,2014-01-14,180,,,,,2013-08-01,14,Week 2,2,Eyesight in Both Eyes,VFQ2,NEI VFQ-25,Original Response,1,FAIR,5,-4,-80,,Y,Y,228,VFQ2,Eyesight Using Both Eyes Is,NEI VFQ-25,Original Response,FAIR,,FAIR,1,,,,4,WEEK 2,14,2013-08-01,14
322,CDISCPILOT01,01-701-1028,1028,701,USA,QS,2013-07-19,2014-01-14,2013-07-19,2014-01-14,2014-01-14T11:10,,,,,,,,,,,,124,NA,2013-07-11,-8,71,YEARS,>64,M,WHITE,White,NOT HISPANIC OR LATINO,Y,Xanomeline High Dose,Xan_Hi,Xanomeline High Dose,Xan_Hi,Xanomeline High Dose,Xanomeline High Dose,2013-07-19,2013-07-19T00:00:00Z,H,2014-01-14,2014-01-14T23:59:59Z,H,COMPLETED,2014-01-14,,2013-07-19,2014-01-14,180,,,,,2013-08-14,27,Week 4,4,Eyesight in Both Eyes,VFQ2,NEI VFQ-25,Original Response,2,GOOD,5,-3,-60,,Y,Y,374,VFQ2,Eyesight Using Both Eyes Is,NEI VFQ-25,Original Response,GOOD,,GOOD,2,,,,5,WEEK 4,28,2013-08-14,27
323,CDISCPILOT01,01-701-1028,1028,701,USA,QS,2013-07-19,2014-01-14,2013-07-19,2014-01-14,2014-01-14T11:10,,,,,,,,,,,,125,NA,2013-07-11,-8,71,YEARS,>64,M,WHITE,White,NOT HISPANIC OR LATINO,Y,Xanomeline High Dose,Xan_Hi,Xanomeline High Dose,Xan_Hi,Xanomeline High Dose,Xanomeline High Dose,2013-07-19,2013-07-19T00:00:00Z,H,2014-01-14,2014-01-14T23:59:59Z,H,COMPLETED,2014-01-14,,2013-07-19,2014-01-14,180,,,,,2013-08-29,42,Week 6,6,Eyesight in Both Eyes,VFQ2,NEI VFQ-25,Original Response,4,VERY GOOD,5,-1,-20,,Y,Y,396,VFQ2,Eyesight Using Both Eyes Is,NEI VFQ-25,Original Response,VERY GOOD,,VERY GOOD,4,,,,7,WEEK 6,42,2013-08-29,42
324,CDISCPILOT01,01-701-1028,1028,701,USA,QS,2013-07-19,2014-01-14,2013-07-19,2014-01-14,2014-01-14T11:10,,,,,,,,,,,,126,NA,2013-07-11,-8,71,YEARS,>64,M,WHITE,White,NOT HISPANIC OR LATINO,Y,Xanomeline High Dose,Xan_Hi,Xanomeline High Dose,Xan_Hi,Xanomeline High Dose,Xanomeline High Dose,2013-07-19,2013-07-19T00:00:00Z,H,2014-01-14,2014-01-14T23:59:59Z,H,COMPLETED,2014-01-14,,2013-07-19,2014-01-14,180,,,,,2013-09-10,54,Week 8,8,Eyesight in Both Eyes,VFQ2,NEI VFQ-25,Original Response,3,POOR,5,-2,-40,,Y,Y,420,VFQ2,Eyesight Using Both Eyes Is,NEI VFQ-25,Original Response,POOR,,POOR,3,,,,8,WEEK 8,56,2013-09-10,54
325,CDISCPILOT01,01-701-1028,1028,701,USA,QS,2013-07-19,2014-01-14,2013-07-19,2014-01-14,2014-01-14T11:10,,,,,,,,,,,,127,NA,2013-07-11,-8,71,YEARS,>64,M,WHITE,White,NOT HISPANIC OR LATINO,Y,Xanomeline High Dose,Xan_Hi,Xanomeline High Dose,Xan_Hi,Xanomeline High Dose,Xanomeline High Dose,2013-07-19,2013-07-19T00:00:00Z,H,2014-01-14,2014-01-14T23:59:59Z,H,COMPLETED,2014-01-14,,2013-07-19,2014-01-14,180,,,,,2013-09-24,68,Week 10 (T),10,Eyesight in Both Eyes,VFQ2,NEI VFQ-25,Original Response,5,VERY POOR,5,0,0,,Y,Y,79,VFQ2,Eyesight Using Both Eyes Is,NEI VFQ-25,Original Response,VERY POOR,,VERY POOR,5,,,,8.1,WEEK 10 (T),70,2013-09-24,68
326,CDISCPILOT01,01-701-1028,1028,701,USA,QS,2013-07-19,2014-01-14,2013-07-19,2014-01-14,2014-01-14T11:10,,,,,,,,,,,,128,NA,2013-07-11,-8,71,YEARS,>64,M,WHITE,White,NOT HISPANIC OR LATINO,Y,Xanomeline High Dose,Xan_Hi,Xanomeline High Dose,Xan_Hi,Xanomeline High Dose,Xanomeline High Dose,2013-07-19,2013-07-19T00:00:00Z,H,2014-01-14,2014-01-14T23:59:59Z,H,COMPLETED,2014-01-14,,2013-07-19,2014-01-14,180,,,,,2013-10-09,83,Week 12,12,Eyesight in Both Eyes,VFQ2,NEI VFQ-25,Original Response,2,GOOD,5,-3,-60,,Y,Y,113,VFQ2,Eyesight Using Both Eyes Is,NEI VFQ-25,Original Response,GOOD,,GOOD,2,,,,9,WEEK 12,84,2013-10-09,83
327,CDISCPILOT01,01-701-1028,1028,701,USA,QS,2013-07-19,2014-01-14,2013-07-19,2014-01-14,2014-01-14T11:10,,,,,,,,,,,,129,NA,2013-07-11,-8,71,YEARS,>64,M,WHITE,White,NOT HISPANIC OR LATINO,Y,Xanomeline High Dose,Xan_Hi,Xanomeline High Dose,Xan_Hi,Xanomeline High Dose,Xanomeline High Dose,2013-07-19,2013-07-19T00:00:00Z,H,2014-01-14,2014-01-14T23:59:59Z,H,COMPLETED,2014-01-14,,2013-07-19,2014-01-14,180,,,,,2013-10-23,97,Week 14 (T),14,Eyesight in Both Eyes,VFQ2,NEI VFQ-25,Original Response,5,VERY POOR,5,0,0,,Y,Y,132,VFQ2,Eyesight Using Both Eyes Is,NEI VFQ-25,Original Response,VERY POOR,,VERY POOR,5,,,,9.1,WEEK 14 (T),98,2013-10-23,97
328,CDISCPILOT01,01-701-1028,1028,701,USA,QS,2013-07-19,2014-01-14,2013-07-19,2014-01-14,2014-01-14T11:10,,,,,,,,,,,,130,NA,2013-07-11,-8,71,YEARS,>64,M,WHITE,White,NOT HISPANIC OR LATINO,Y,Xanomeline High Dose,Xan_Hi,Xanomeline High Dose,Xan_Hi,Xanomeline High Dose,Xanomeline High Dose,2013-07-19,2013-07-19T00:00:00Z,H,2014-01-14,2014-01-14T23:59:59Z,H,COMPLETED,2014-01-14,,2013-07-19,2014-01-14,180,,,,,2013-11-06,111,Week 16,16,Eyesight in Both Eyes,VFQ2,NEI VFQ-25,Original Response,4,VERY GOOD,5,-1,-20,,Y,Y,148,VFQ2,Eyesight Using Both Eyes Is,NEI VFQ-25,Original Response,VERY GOOD,,VERY GOOD,4,,,,10,WEEK 16,112,2013-11-06,111
329,CDISCPILOT01,01-701-1028,1028,701,USA,QS,2013-07-19,2014-01-14,2013-07-19,2014-01-14,2014-01-14T11:10,,,,,,,,,,,,131,NA,2013-07-11,-8,71,YEARS,>64,M,WHITE,White,NOT HISPANIC OR LATINO,Y,Xanomeline High Dose,Xan_Hi,Xanomeline High Dose,Xan_Hi,Xanomeline High Dose,Xanomeline High Dose,2013-07-19,2013-07-19T00:00:00Z,H,2014-01-14,2014-01-14T23:59:59Z,H,COMPLETED,2014-01-14,,2013-07-19,2014-01-14,180,,,,,2013-11-20,125,Week 18 (T),18,Eyesight in Both Eyes,VFQ2,NEI VFQ-25,Original Response,3,POOR,5,-2,-40,,Y,Y,183,VFQ2,Eyesight Using Both Eyes Is,NEI VFQ-25,Original Response,POOR,,POOR,3,,,,10.1,WEEK 18 (T),126,2013-11-20,125
330,CDISCPILOT01,01-701-1028,1028,701,USA,QS,2013-07-19,2014-01-14,2013-07-19,2014-01-14,2014-01-14T11:10,,,,,,,,,,,,132,NA,2013-07-11,-8,71,YEARS,>64,M,WHITE,White,NOT HISPANIC OR LATINO,Y,Xanomeline High Dose,Xan_Hi,Xanomeline High Dose,Xan_Hi,Xanomeline High Dose,Xanomeline High Dose,2013-07-19,2013-07-19T00:00:00Z,H,2014-01-14,2014-01-14T23:59:59Z,H,COMPLETED,2014-01-14,,2013-07-19,2014-01-14,180,,,,,2013-12-04,139,Week 20,20,Eyesight in Both Eyes,VFQ2,NEI VFQ-25,Original Response,4,VERY GOOD,5,-1,-20,,Y,Y,239,VFQ2,Eyesight Using Both Eyes Is,NEI VFQ-25,Original Response,VERY GOOD,,VERY GOOD,4,,,,11,WEEK 20,140,2013-12-04,139
331,CDISCPILOT01,01-701-1028,1028,701,USA,QS,2013-07-19,2014-01-14,2013-07-19,2014-01-14,2014-01-14T11:10,,,,,,,,,,,,133,NA,2013-07-11,-8,71,YEARS,>64,M,WHITE,White,NOT HISPANIC OR LATINO,Y,Xanomeline High Dose,Xan_Hi,Xanomeline High Dose,Xan_Hi,Xanomeline High Dose,Xanomeline High Dose,2013-07-19,2013-07-19T00:00:00Z,H,2014-01-14,2014-01-14T23:59:59Z,H,COMPLETED,2014-01-14,,2013-07-19,2014-01-14,180,,,,,2013-12-18,153,Week 22 (T),22,Eyesight in Both Eyes,VFQ2,NEI VFQ-25,Original Response,3,POOR,5,-2,-40,,Y,Y,270,VFQ2,Eyesight Using Both Eyes Is,NEI VFQ-25,Original Response,POOR,,POOR,3,,,,11.1,WEEK 22 (T),154,2013-12-18,153
332,CDISCPILOT01,01-701-1028,1028,701,USA,QS,2013-07-19,2014-01-14,2013-07-19,2014-01-14,2014-01-14T11:10,,,,,,,,,,,,134,NA,2013-07-11,-8,71,YEARS,>64,M,WHITE,White,NOT HISPANIC OR LATINO,Y,Xanomeline High Dose,Xan_Hi,Xanomeline High Dose,Xan_Hi,Xanomeline High Dose,Xanomeline High Dose,2013-07-19,2013-07-19T00:00:00Z,H,2014-01-14,2014-01-14T23:59:59Z,H,COMPLETED,2014-01-14,,2013-07-19,2014-01-14,180,,,,,2014-01-06,172,Week 24,24,Eyesight in Both Eyes,VFQ2,NEI VFQ-25,Original Response,2,GOOD,5,-3,-60,,Y,Y,310,VFQ2,Eyesight Using Both Eyes Is,NEI VFQ-25,Original Response,GOOD,,GOOD,2,,,,12,WEEK 24,168,2014-01-06,172
333,CDISCPILOT01,01-701-1028,1028,701,USA,QS,2013-07-19,2014-01-14,2013-07-19,2014-01-14,2014-01-14T11:10,,,,,,,,,,,,135,NA,2013-07-11,-8,71,YEARS,>64,M,WHITE,White,NOT HISPANIC OR LATINO,Y,Xanomeline High Dose,Xan_Hi,Xanomeline High Dose,Xan_Hi,Xanomeline High Dose,Xanomeline High Dose,2013-07-19,2013-07-19T00:00:00Z,H,2014-01-14,2014-01-14T23:59:59Z,H,COMPLETED,2014-01-14,,2013-07-19,2014-01-14,180,,,,,2014-01-14,180,Week 26,26,Eyesight in Both Eyes,VFQ2,NEI VFQ-25,Original Response,2,GOOD,5,-3,-60,,Y,Y,337,VFQ2,Eyesight Using Both Eyes Is,NEI VFQ-25,Original Response,GOOD,,GOOD,2,,,,13,WEEK 26,182,2014-01-14,180
334,CDISCPILOT01,01-701-1028,1028,701,USA,QS,2013-07-19,2014-01-14,2013-07-19,2014-01-14,2014-01-14T11:10,,,,,,,,,,,,136,NA,2013-07-11,-8,71,YEARS,>64,M,WHITE,White,NOT HISPANIC OR LATINO,Y,Xanomeline High Dose,Xan_Hi,Xanomeline High Dose,Xan_Hi,Xanomeline High Dose,Xanomeline High Dose,2013-07-19,2013-07-19T00:00:00Z,H,2014-01-14,2014-01-14T23:59:59Z,H,COMPLETED,2014-01-14,,2013-07-19,2014-01-14,180,,,,,2013-07-11,-8,,,Worry About Eyesight,VFQ3,NEI VFQ-25,Original Response,1,FREQUENTLY,2,-1,-50,,,,40,VFQ3,How Often You Worry About Eyesight,NEI VFQ-25,Original Response,FREQUENTLY,,FREQUENTLY,1,,,,1,SCREENING 1,-7,2013-07-11,-8
335,CDISCPILOT01,01-701-1028,1028,701,USA,QS,2013-07-19,2014-01-14,2013-07-19,2014-01-14,2014-01-14T11:10,,,,,,,,,,,,137,NA,2013-07-11,-8,71,YEARS,>64,M,WHITE,White,NOT HISPANIC OR LATINO,Y,Xanomeline High Dose,Xan_Hi,Xanomeline High Dose,Xan_Hi,Xanomeline High Dose,Xanomeline High Dose,2013-07-19,2013-07-19T00:00:00Z,H,2014-01-14,2014-01-14T23:59:59Z,H,COMPLETED,2014-01-14,,2013-07-19,2014-01-14,180,,,,,2013-07-19,1,Baseline,0,Worry About Eyesight,VFQ3,NEI VFQ-25,Original Response,2,NEVER,2,0,0,Y,,,13,VFQ3,How Often You Worry About Eyesight,NEI VFQ-25,Original Response,NEVER,,NEVER,2,,Y,,3,BASELINE,1,2013-07-19,1
336,CDISCPILOT01,01-701-1028,1028,701,USA,QS,2013-07-19,2014-01-14,2013-07-19,2014-01-14,2014-01-14T11:10,,,,,,,,,,,,138,NA,2013-07-11,-8,71,YEARS,>64,M,WHITE,White,NOT HISPANIC OR LATINO,Y,Xanomeline High Dose,Xan_Hi,Xanomeline High Dose,Xan_Hi,Xanomeline High Dose,Xanomeline High Dose,2013-07-19,2013-07-19T00:00:00Z,H,2014-01-14,2014-01-14T23:59:59Z,H,COMPLETED,2014-01-14,,2013-07-19,2014-01-14,180,,,,,2013-08-01,14,Week 2,2,Worry About Eyesight,VFQ3,NEI VFQ-25,Original Response,2,NEVER,2,0,0,,Y,Y,231,VFQ3,How Often You Worry About Eyesight,NEI VFQ-25,Original Response,NEVER,,NEVER,2,,,,4,WEEK 2,14,2013-08-01,14
337,CDISCPILOT01,01-701-1028,1028,701,USA,QS,2013-07-19,2014-01-14,2013-07-19,2014-01-14,2014-01-14T11:10,,,,,,,,,,,,139,NA,2013-07-11,-8,71,YEARS,>64,M,WHITE,White,NOT HISPANIC OR LATINO,Y,Xanomeline High Dose,Xan_Hi,Xanomeline High Dose,Xan_Hi,Xanomeline High Dose,Xanomeline High Dose,2013-07-19,2013-07-19T00:00:00Z,H,2014-01-14,2014-01-14T23:59:59Z,H,COMPLETED,2014-01-14,,2013-07-19,2014-01-14,180,,,,,2013-08-14,27,Week 4,4,Worry About Eyesight,VFQ3,NEI VFQ-25,Original Response,3,RARELY,2,1,50,,Y,Y,376,VFQ3,How Often You Worry About Eyesight,NEI VFQ-25,Original Response,RARELY,,RARELY,3,,,,5,WEEK 4,28,2013-08-14,27
338,CDISCPILOT01,01-701-1028,1028,701,USA,QS,2013-07-19,2014-01-14,2013-07-19,2014-01-14,2014-01-14T11:10,,,,,,,,,,,,140,NA,2013-07-11,-8,71,YEARS,>64,M,WHITE,White,NOT HISPANIC OR LATINO,Y,Xanomeline High Dose,Xan_Hi,Xanomeline High Dose,Xan_Hi,Xanomeline High Dose,Xanomeline High Dose,2013-07-19,2013-07-19T00:00:00Z,H,2014-01-14,2014-01-14T23:59:59Z,H,COMPLETED,2014-01-14,,2013-07-19,2014-01-14,180,,,,,2013-08-29,42,Week 6,6,Worry About Eyesight,VFQ3,NEI VFQ-25,Original Response,3,RARELY,2,1,50,,Y,Y,404,VFQ3,How Often You Worry About Eyesight,NEI VFQ-25,Original Response,RARELY,,RARELY,3,,,,7,WEEK 6,42,2013-08-29,42
339,CDISCPILOT01,01-701-1028,1028,701,USA,QS,2013-07-19,2014-01-14,2013-07-19,2014-01-14,2014-01-14T11:10,,,,,,,,,,,,141,NA,2013-07-11,-8,71,YEARS,>64,M,WHITE,White,NOT HISPANIC OR LATINO,Y,Xanomeline High Dose,Xan_Hi,Xanomeline High Dose,Xan_Hi,Xanomeline High Dose,Xanomeline High Dose,2013-07-19,2013-07-19T00:00:00Z,H,2014-01-14,2014-01-14T23:59:59Z,H,COMPLETED,2014-01-14,,2013-07-19,2014-01-14,180,,,,,2013-09-10,54,Week 8,8,Worry About Eyesight,VFQ3,NEI VFQ-25,Original Response,2,NEVER,2,0,0,,Y,Y,410,VFQ3,How Often You Worry About Eyesight,NEI VFQ-25,Original Response,NEVER,,NEVER,2,,,,8,WEEK 8,56,2013-09-10,54
340,CDISCPILOT01,01-701-1028,1028,701,USA,QS,2013-07-19,2014-01-14,2013-07-19,2014-01-14,2014-01-14T11:10,,,,,,,,,,,,142,NA,2013-07-11,-8,71,YEARS,>64,M,WHITE,White,NOT HISPANIC OR LATINO,Y,Xanomeline High Dose,Xan_Hi,Xanomeline High Dose,Xan_Hi,Xanomeline High Dose,Xanomeline High Dose,2013-07-19,2013-07-19T00:00:00Z,H,2014-01-14,2014-01-14T23:59:59Z,H,COMPLETED,2014-01-14,,2013-07-19,2014-01-14,180,,,,,2013-09-24,68,Week 10 (T),10,Worry About Eyesight,VFQ3,NEI VFQ-25,Original Response,1,FREQUENTLY,2,-1,-50,,Y,Y,66,VFQ3,How Often You Worry About Eyesight,NEI VFQ-25,Original Response,FREQUENTLY,,FREQUENTLY,1,,,,8.1,WEEK 10 (T),70,2013-09-24,68
341,CDISCPILOT01,01-701-1028,1028,701,USA,QS,2013-07-19,2014-01-14,2013-07-19,2014-01-14,2014-01-14T11:10,,,,,,,,,,,,143,NA,2013-07-11,-8,71,YEARS,>64,M,WHITE,White,NOT HISPANIC OR LATINO,Y,Xanomeline High Dose,Xan_Hi,Xanomeline High Dose,Xan_Hi,Xanomeline High Dose,Xanomeline High Dose,2013-07-19,2013-07-19T00:00:00Z,H,2014-01-14,2014-01-14T23:59:59Z,H,COMPLETED,2014-01-14,,2013-07-19,2014-01-14,180,,,,,2013-10-09,83,Week 12,12,Worry About Eyesight,VFQ3,NEI VFQ-25,Original Response,1,FREQUENTLY,2,-1,-50,,Y,Y,96,VFQ3,How Often You Worry About Eyesight,NEI VFQ-25,Original Response,FREQUENTLY,,FREQUENTLY,1,,,,9,WEEK 12,84,2013-10-09,83
342,CDISCPILOT01,01-701-1028,1028,701,USA,QS,2013-07-19,2014-01-14,2013-07-19,2014-01-14,2014-01-14T11:10,,,,,,,,,,,,144,NA,2013-07-11,-8,71,YEARS,>64,M,WHITE,White,NOT HISPANIC OR LATINO,Y,Xanomeline High Dose,Xan_Hi,Xanomeline High Dose,Xan_Hi,Xanomeline High Dose,Xanomeline High Dose,2013-07-19,2013-07-19T00:00:00Z,H,2014-01-14,2014-01-14T23:59:59Z,H,COMPLETED,2014-01-14,,2013-07-19,2014-01-14,180,,,,,2013-10-23,97,Week 14 (T),14,Worry About Eyesight,VFQ3,NEI VFQ-25,Original Response,3,RARELY,2,1,50,,Y,Y,129,VFQ3,How Often You Worry About Eyesight,NEI VFQ-25,Original Response,RARELY,,RARELY,3,,,,9.1,WEEK 14 (T),98,2013-10-23,97
343,CDISCPILOT01,01-701-1028,1028,701,USA,QS,2013-07-19,2014-01-14,2013-07-19,2014-01-14,2014-01-14T11:10,,,,,,,,,,,,145,NA,2013-07-11,-8,71,YEARS,>64,M,WHITE,White,NOT HISPANIC OR LATINO,Y,Xanomeline High Dose,Xan_Hi,Xanomeline High Dose,Xan_Hi,Xanomeline High Dose,Xanomeline High Dose,2013-07-19,2013-07-19T00:00:00Z,H,2014-01-14,2014-01-14T23:59:59Z,H,COMPLETED,2014-01-14,,2013-07-19,2014-01-14,180,,,,,2013-11-06,111,Week 16,16,Worry About Eyesight,VFQ3,NEI VFQ-25,Original Response,2,NEVER,2,0,0,,Y,Y,169,VFQ3,How Often You Worry About Eyesight,NEI VFQ-25,Original Response,NEVER,,NEVER,2,,,,10,WEEK 16,112,2013-11-06,111
344,CDISCPILOT01,01-701-1028,1028,701,USA,QS,2013-07-19,2014-01-14,2013-07-19,2014-01-14,2014-01-14T11:10,,,,,,,,,,,,146,NA,2013-07-11,-8,71,YEARS,>64,M,WHITE,White,NOT HISPANIC OR LATINO,Y,Xanomeline High Dose,Xan_Hi,Xanomeline High Dose,Xan_Hi,Xanomeline High Dose,Xanomeline High Dose,2013-07-19,2013-07-19T00:00:00Z,H,2014-01-14,2014-01-14T23:59:59Z,H,COMPLETED,2014-01-14,,2013-07-19,2014-01-14,180,,,,,2013-11-20,125,Week 18 (T),18,Worry About Eyesight,VFQ3,NEI VFQ-25,Original Response,2,NEVER,2,0,0,,Y,Y,180,VFQ3,How Often You Worry About Eyesight,NEI VFQ-25,Original Response,NEVER,,NEVER,2,,,,10.1,WEEK 18 (T),126,2013-11-20,125
345,CDISCPILOT01,01-701-1028,1028,701,USA,QS,2013-07-19,2014-01-14,2013-07-19,2014-01-14,2014-01-14T11:10,,,,,,,,,,,,147,NA,2013-07-11,-8,71,YEARS,>64,M,WHITE,White,NOT HISPANIC OR LATINO,Y,Xanomeline High Dose,Xan_Hi,Xanomeline High Dose,Xan_Hi,Xanomeline High Dose,Xanomeline High Dose,2013-07-19,2013-07-19T00:00:00Z,H,2014-01-14,2014-01-14T23:59:59Z,H,COMPLETED,2014-01-14,,2013-07-19,2014-01-14,180,,,,,2013-12-04,139,Week 20,20,Worry About Eyesight,VFQ3,NEI VFQ-25,Original Response,4,SOMETIMES,2,2,100,,Y,Y,243,VFQ3,How Often You Worry About Eyesight,NEI VFQ-25,Original Response,SOMETIMES,,SOMETIMES,4,,,,11,WEEK 20,140,2013-12-04,139
346,CDISCPILOT01,01-701-1028,1028,701,USA,QS,2013-07-19,2014-01-14,2013-07-19,2014-01-14,2014-01-14T11:10,,,,,,,,,,,,148,NA,2013-07-11,-8,71,YEARS,>64,M,WHITE,White,NOT HISPANIC OR LATINO,Y,Xanomeline High Dose,Xan_Hi,Xanomeline High Dose,Xan_Hi,Xanomeline High Dose,Xanomeline High Dose,2013-07-19,2013-07-19T00:00:00Z,H,2014-01-14,2014-01-14T23:59:59Z,H,COMPLETED,2014-01-14,,2013-07-19,2014-01-14,180,,,,,2013-12-18,153,Week 22 (T),22,Worry About Eyesight,VFQ3,NEI VFQ-25,Original Response,2,NEVER,2,0,0,,Y,Y,262,VFQ3,How Often You Worry About Eyesight,NEI VFQ-25,Original Response,NEVER,,NEVER,2,,,,11.1,WEEK 22 (T),154,2013-12-18,153
347,CDISCPILOT01,01-701-1028,1028,701,USA,QS,2013-07-19,2014-01-14,2013-07-19,2014-01-14,2014-01-14T11:10,,,,,,,,,,,,149,NA,2013-07-11,-8,71,YEARS,>64,M,WHITE,White,NOT HISPANIC OR LATINO,Y,Xanomeline High Dose,Xan_Hi,Xanomeline High Dose,Xan_Hi,Xanomeline High Dose,Xanomeline High Dose,2013-07-19,2013-07-19T00:00:00Z,H,2014-01-14,2014-01-14T23:59:59Z,H,COMPLETED,2014-01-14,,2013-07-19,2014-01-14,180,,,,,2014-01-06,172,Week 24,24,Worry About Eyesight,VFQ3,NEI VFQ-25,Original Response,4,SOMETIMES,2,2,100,,Y,Y,313,VFQ3,How Often You Worry About Eyesight,NEI VFQ-25,Original Response,SOMETIMES,,SOMETIMES,4,,,,12,WEEK 24,168,2014-01-06,172
348,CDISCPILOT01,01-701-1028,1028,701,USA,QS,2013-07-19,2014-01-14,2013-07-19,2014-01-14,2014-01-14T11:10,,,,,,,,,,,,150,NA,2013-07-11,-8,71,YEARS,>64,M,WHITE,White,NOT HISPANIC OR LATINO,Y,Xanomeline High Dose,Xan_Hi,Xanomeline High Dose,Xan_Hi,Xanomeline High Dose,Xanomeline High Dose,2013-07-19,2013-07-19T00:00:00Z,H,2014-01-14,2014-01-14T23:59:59Z,H,COMPLETED,2014-01-14,,2013-07-19,2014-01-14,180,,,,,2014-01-14,180,Week 26,26,Worry About Eyesight,VFQ3,NEI VFQ-25,Original Response,4,SOMETIMES,2,2,100,,Y,Y,321,VFQ3,How Often You Worry About Eyesight,NEI VFQ-25,Original Response,SOMETIMES,,SOMETIMES,4,,,,13,WEEK 26,182,2014-01-14,180
349,CDISCPILOT01,01-701-1028,1028,701,USA,QS,2013-07-19,2014-01-14,2013-07-19,2014-01-14,2014-01-14T11:10,,,,,,,,,,,,151,NA,2013-07-11,-8,71,YEARS,>64,M,WHITE,White,NOT HISPANIC OR LATINO,Y,Xanomeline High Dose,Xan_Hi,Xanomeline High Dose,Xan_Hi,Xanomeline High Dose,Xanomeline High Dose,2013-07-19,2013-07-19T00:00:00Z,H,2014-01-14,2014-01-14T23:59:59Z,H,COMPLETED,2014-01-14,,2013-07-19,2014-01-14,180,,,,,2013-07-11,-8,,,Pain in and Around Eyes,VFQ4,NEI VFQ-25,Original Response,3,RARELY,2,1,50,,,,51,VFQ4,How Often Pain in and Around Eyes,NEI VFQ-25,Original Response,RARELY,,RARELY,3,,,,1,SCREENING 1,-7,2013-07-11,-8
350,CDISCPILOT01,01-701-1028,1028,701,USA,QS,2013-07-19,2014-01-14,2013-07-19,2014-01-14,2014-01-14T11:10,,,,,,,,,,,,152,NA,2013-07-11,-8,71,YEARS,>64,M,WHITE,White,NOT HISPANIC OR LATINO,Y,Xanomeline High Dose,Xan_Hi,Xanomeline High Dose,Xan_Hi,Xanomeline High Dose,Xanomeline High Dose,2013-07-19,2013-07-19T00:00:00Z,H,2014-01-14,2014-01-14T23:59:59Z,H,COMPLETED,2014-01-14,,2013-07-19,2014-01-14,180,,,,,2013-07-19,1,Baseline,0,Pain in and Around Eyes,VFQ4,NEI VFQ-25,Original Response,2,NEVER,2,0,0,Y,,,22,VFQ4,How Often Pain in and Around Eyes,NEI VFQ-25,Original Response,NEVER,,NEVER,2,,Y,,3,BASELINE,1,2013-07-19,1
351,CDISCPILOT01,01-701-1028,1028,701,USA,QS,2013-07-19,2014-01-14,2013-07-19,2014-01-14,2014-01-14T11:10,,,,,,,,,,,,153,NA,2013-07-11,-8,71,YEARS,>64,M,WHITE,White,NOT HISPANIC OR LATINO,Y,Xanomeline High Dose,Xan_Hi,Xanomeline High Dose,Xan_Hi,Xanomeline High Dose,Xanomeline High Dose,2013-07-19,2013-07-19T00:00:00Z,H,2014-01-14,2014-01-14T23:59:59Z,H,COMPLETED,2014-01-14,,2013-07-19,2014-01-14,180,,,,,2013-08-01,14,Week 2,2,Pain in and Around Eyes,VFQ4,NEI VFQ-25,Original Response,1,FREQUENTLY,2,-1,-50,,Y,Y,232,VFQ4,How Often Pain in and Around Eyes,NEI VFQ-25,Original Response,FREQUENTLY,,FREQUENTLY,1,,,,4,WEEK 2,14,2013-08-01,14
352,CDISCPILOT01,01-701-1028,1028,701,USA,QS,2013-07-19,2014-01-14,2013-07-19,2014-01-14,2014-01-14T11:10,,,,,,,,,,,,154,NA,2013-07-11,-8,71,YEARS,>64,M,WHITE,White,NOT HISPANIC OR LATINO,Y,Xanomeline High Dose,Xan_Hi,Xanomeline High Dose,Xan_Hi,Xanomeline High Dose,Xanomeline High Dose,2013-07-19,2013-07-19T00:00:00Z,H,2014-01-14,2014-01-14T23:59:59Z,H,COMPLETED,2014-01-14,,2013-07-19,2014-01-14,180,,,,,2013-08-14,27,Week 4,4,Pain in and Around Eyes,VFQ4,NEI VFQ-25,Original Response,2,NEVER,2,0,0,,Y,Y,377,VFQ4,How Often Pain in and Around Eyes,NEI VFQ-25,Original Response,NEVER,,NEVER,2,,,,5,WEEK 4,28,2013-08-14,27
353,CDISCPILOT01,01-701-1028,1028,701,USA,QS,2013-07-19,2014-01-14,2013-07-19,2014-01-14,2014-01-14T11:10,,,,,,,,,,,,155,NA,2013-07-11,-8,71,YEARS,>64,M,WHITE,White,NOT HISPANIC OR LATINO,Y,Xanomeline High Dose,Xan_Hi,Xanomeline High Dose,Xan_Hi,Xanomeline High Dose,Xanomeline High Dose,2013-07-19,2013-07-19T00:00:00Z,H,2014-01-14,2014-01-14T23:59:59Z,H,COMPLETED,2014-01-14,,2013-07-19,2014-01-14,180,,,,,2013-08-29,42,Week 6,6,Pain in and Around Eyes,VFQ4,NEI VFQ-25,Original Response,4,SOMETIMES,2,2,100,,Y,Y,403,VFQ4,How Often Pain in and Around Eyes,NEI VFQ-25,Original Response,SOMETIMES,,SOMETIMES,4,,,,7,WEEK 6,42,2013-08-29,42
354,CDISCPILOT01,01-701-1028,1028,701,USA,QS,2013-07-19,2014-01-14,2013-07-19,2014-01-14,2014-01-14T11:10,,,,,,,,,,,,156,NA,2013-07-11,-8,71,YEARS,>64,M,WHITE,White,NOT HISPANIC OR LATINO,Y,Xanomeline High Dose,Xan_Hi,Xanomeline High Dose,Xan_Hi,Xanomeline High Dose,Xanomeline High Dose,2013-07-19,2013-07-19T00:00:00Z,H,2014-01-14,2014-01-14T23:59:59Z,H,COMPLETED,2014-01-14,,2013-07-19,2014-01-14,180,,,,,2013-09-10,54,Week 8,8,Pain in and Around Eyes,VFQ4,NEI VFQ-25,Original Response,4,SOMETIMES,2,2,100,,Y,Y,413,VFQ4,How Often Pain in and Around Eyes,NEI VFQ-25,Original Response,SOMETIMES,,SOMETIMES,4,,,,8,WEEK 8,56,2013-09-10,54
355,CDISCPILOT01,01-701-1028,1028,701,USA,QS,2013-07-19,2014-01-14,2013-07-19,2014-01-14,2014-01-14T11:10,,,,,,,,,,,,157,NA,2013-07-11,-8,71,YEARS,>64,M,WHITE,White,NOT HISPANIC OR LATINO,Y,Xanomeline High Dose,Xan_Hi,Xanomeline High Dose,Xan_Hi,Xanomeline High Dose,Xanomeline High Dose,2013-07-19,2013-07-19T00:00:00Z,H,2014-01-14,2014-01-14T23:59:59Z,H,COMPLETED,2014-01-14,,2013-07-19,2014-01-14,180,,,,,2013-09-24,68,Week 10 (T),10,Pain in and Around Eyes,VFQ4,NEI VFQ-25,Original Response,4,SOMETIMES,2,2,100,,Y,Y,84,VFQ4,How Often Pain in and Around Eyes,NEI VFQ-25,Original Response,SOMETIMES,,SOMETIMES,4,,,,8.1,WEEK 10 (T),70,2013-09-24,68
356,CDISCPILOT01,01-701-1028,1028,701,USA,QS,2013-07-19,2014-01-14,2013-07-19,2014-01-14,2014-01-14T11:10,,,,,,,,,,,,158,NA,2013-07-11,-8,71,YEARS,>64,M,WHITE,White,NOT HISPANIC OR LATINO,Y,Xanomeline High Dose,Xan_Hi,Xanomeline High Dose,Xan_Hi,Xanomeline High Dose,Xanomeline High Dose,2013-07-19,2013-07-19T00:00:00Z,H,2014-01-14,2014-01-14T23:59:59Z,H,COMPLETED,2014-01-14,,2013-07-19,2014-01-14,180,,,,,2013-10-09,83,Week 12,12,Pain in and Around Eyes,VFQ4,NEI VFQ-25,Original Response,4,SOMETIMES,2,2,100,,Y,Y,106,VFQ4,How Often Pain in and Around Eyes,NEI VFQ-25,Original Response,SOMETIMES,,SOMETIMES,4,,,,9,WEEK 12,84,2013-10-09,83
357,CDISCPILOT01,01-701-1028,1028,701,USA,QS,2013-07-19,2014-01-14,2013-07-19,2014-01-14,2014-01-14T11:10,,,,,,,,,,,,159,NA,2013-07-11,-8,71,YEARS,>64,M,WHITE,White,NOT HISPANIC OR LATINO,Y,Xanomeline High Dose,Xan_Hi,Xanomeline High Dose,Xan_Hi,Xanomeline High Dose,Xanomeline High Dose,2013-07-19,2013-07-19T00:00:00Z,H,2014-01-14,2014-01-14T23:59:59Z,H,COMPLETED,2014-01-14,,2013-07-19,2014-01-14,180,,,,,2013-10-23,97,Week 14 (T),14,Pain in and Around Eyes,VFQ4,NEI VFQ-25,Original Response,1,FREQUENTLY,2,-1,-50,,Y,Y,142,VFQ4,How Often Pain in and Around Eyes,NEI VFQ-25,Original Response,FREQUENTLY,,FREQUENTLY,1,,,,9.1,WEEK 14 (T),98,2013-10-23,97
358,CDISCPILOT01,01-701-1028,1028,701,USA,QS,2013-07-19,2014-01-14,2013-07-19,2014-01-14,2014-01-14T11:10,,,,,,,,,,,,160,NA,2013-07-11,-8,71,YEARS,>64,M,WHITE,White,NOT HISPANIC OR LATINO,Y,Xanomeline High Dose,Xan_Hi,Xanomeline High Dose,Xan_Hi,Xanomeline High Dose,Xanomeline High Dose,2013-07-19,2013-07-19T00:00:00Z,H,2014-01-14,2014-01-14T23:59:59Z,H,COMPLETED,2014-01-14,,2013-07-19,2014-01-14,180,,,,,2013-11-06,111,Week 16,16,Pain in and Around Eyes,VFQ4,NEI VFQ-25,Original Response,2,NEVER,2,0,0,,Y,Y,149,VFQ4,How Often Pain in and Around Eyes,NEI VFQ-25,Original Response,NEVER,,NEVER,2,,,,10,WEEK 16,112,2013-11-06,111
359,CDISCPILOT01,01-701-1028,1028,701,USA,QS,2013-07-19,2014-01-14,2013-07-19,2014-01-14,2014-01-14T11:10,,,,,,,,,,,,161,NA,2013-07-11,-8,71,YEARS,>64,M,WHITE,White,NOT HISPANIC OR LATINO,Y,Xanomeline High Dose,Xan_Hi,Xanomeline High Dose,Xan_Hi,Xanomeline High Dose,Xanomeline High Dose,2013-07-19,2013-07-19T00:00:00Z,H,2014-01-14,2014-01-14T23:59:59Z,H,COMPLETED,2014-01-14,,2013-07-19,2014-01-14,180,,,,,2013-11-20,125,Week 18 (T),18,Pain in and Around Eyes,VFQ4,NEI VFQ-25,Original Response,2,NEVER,2,0,0,,Y,Y,190,VFQ4,How Often Pain in and Around Eyes,NEI VFQ-25,Original Response,NEVER,,NEVER,2,,,,10.1,WEEK 18 (T),126,2013-11-20,125
360,CDISCPILOT01,01-701-1028,1028,701,USA,QS,2013-07-19,2014-01-14,2013-07-19,2014-01-14,2014-01-14T11:10,,,,,,,,,,,,162,NA,2013-07-11,-8,71,YEARS,>64,M,WHITE,White,NOT HISPANIC OR LATINO,Y,Xanomeline High Dose,Xan_Hi,Xanomeline High Dose,Xan_Hi,Xanomeline High Dose,Xanomeline High Dose,2013-07-19,2013-07-19T00:00:00Z,H,2014-01-14,2014-01-14T23:59:59Z,H,COMPLETED,2014-01-14,,2013-07-19,2014-01-14,180,,,,,2013-12-04,139,Week 20,20,Pain in and Around Eyes,VFQ4,NEI VFQ-25,Original Response,2,NEVER,2,0,0,,Y,Y,247,VFQ4,How Often Pain in and Around Eyes,NEI VFQ-25,Original Response,NEVER,,NEVER,2,,,,11,WEEK 20,140,2013-12-04,139
361,CDISCPILOT01,01-701-1028,1028,701,USA,QS,2013-07-19,2014-01-14,2013-07-19,2014-01-14,2014-01-14T11:10,,,,,,,,,,,,163,NA,2013-07-11,-8,71,YEARS,>64,M,WHITE,White,NOT HISPANIC OR LATINO,Y,Xanomeline High Dose,Xan_Hi,Xanomeline High Dose,Xan_Hi,Xanomeline High Dose,Xanomeline High Dose,2013-07-19,2013-07-19T00:00:00Z,H,2014-01-14,2014-01-14T23:59:59Z,H,COMPLETED,2014-01-14,,2013-07-19,2014-01-14,180,,,,,2013-12-18,153,Week 22 (T),22,Pain in and Around Eyes,VFQ4,NEI VFQ-25,Original Response,3,RARELY,2,1,50,,Y,Y,271,VFQ4,How Often Pain in and Around Eyes,NEI VFQ-25,Original Response,RARELY,,RARELY,3,,,,11.1,WEEK 22 (T),154,2013-12-18,153
362,CDISCPILOT01,01-701-1028,1028,701,USA,QS,2013-07-19,2014-01-14,2013-07-19,2014-01-14,2014-01-14T11:10,,,,,,,,,,,,164,NA,2013-07-11,-8,71,YEARS,>64,M,WHITE,White,NOT HISPANIC OR LATINO,Y,Xanomeline High Dose,Xan_Hi,Xanomeline High Dose,Xan_Hi,Xanomeline High Dose,Xanomeline High Dose,2013-07-19,2013-07-19T00:00:00Z,H,2014-01-14,2014-01-14T23:59:59Z,H,COMPLETED,2014-01-14,,2013-07-19,2014-01-14,180,,,,,2014-01-06,172,Week 24,24,Pain in and Around Eyes,VFQ4,NEI VFQ-25,Original Response,3,RARELY,2,1,50,,Y,Y,306,VFQ4,How Often Pain in and Around Eyes,NEI VFQ-25,Original Response,RARELY,,RARELY,3,,,,12,WEEK 24,168,2014-01-06,172
363,CDISCPILOT01,01-701-1028,1028,701,USA,QS,2013-07-19,2014-01-14,2013-07-19,2014-01-14,2014-01-14T11:10,,,,,,,,,,,,165,NA,2013-07-11,-8,71,YEARS,>64,M,WHITE,White,NOT HISPANIC OR LATINO,Y,Xanomeline High Dose,Xan_Hi,Xanomeline High Dose,Xan_Hi,Xanomeline High Dose,Xanomeline High Dose,2013-07-19,2013-07-19T00:00:00Z,H,2014-01-14,2014-01-14T23:59:59Z,H,COMPLETED,2014-01-14,,2013-07-19,2014-01-14,180,,,,,2014-01-14,180,Week 26,26,Pain in and Around Eyes,VFQ4,NEI VFQ-25,Original Response,2,NEVER,2,0,0,,Y,Y,336,VFQ4,How Often Pain in and Around Eyes,NEI VFQ-25,Original Response,NEVER,,NEVER,2,,,,13,WEEK 26,182,2014-01-14,180
364,CDISCPILOT01,01-701-1033,1033,701,USA,,2014-03-18,2014-04-14,2014-03-18,2014-03-31,2014-09-15,,2014-09-15,,,,,,,,,,1,NA,2014-03-10,-8,74,YEARS,>64,M,WHITE,White,NOT HISPANIC OR LATINO,Y,Xanomeline Low Dose,Xan_Lo,Xanomeline Low Dose,Xan_Lo,Xanomeline Low Dose,Xanomeline Low Dose,2014-03-18,2014-03-18T00:00:00Z,H,2014-03-31,2014-03-31T23:59:59Z,H,DISCONTINUED,2014-04-14,,2014-03-18,2014-04-14,14,,,,,2014-03-10,-8,,,Composite Score,QBCSCORE,NEI VFQ-25,Averaged Result,70,,107.5,-37.5,-34.883720930232556,,,,,,,,,,,,,,,,1,SCREENING 1,,,
365,CDISCPILOT01,01-701-1033,1033,701,USA,,2014-03-18,2014-04-14,2014-03-18,2014-03-31,2014-09-15,,2014-09-15,,,,,,,,,,2,NA,2014-03-10,-8,74,YEARS,>64,M,WHITE,White,NOT HISPANIC OR LATINO,Y,Xanomeline Low Dose,Xan_Lo,Xanomeline Low Dose,Xan_Lo,Xanomeline Low Dose,Xanomeline Low Dose,2014-03-18,2014-03-18T00:00:00Z,H,2014-03-31,2014-03-31T23:59:59Z,H,DISCONTINUED,2014-04-14,,2014-03-18,2014-04-14,14,,,,,2014-03-18,1,Baseline,0,Composite Score,QBCSCORE,NEI VFQ-25,Averaged Result,107.5,,107.5,0,0,Y,,,,,,,,,,,,,,,3,BASELINE,,,
366,CDISCPILOT01,01-701-1033,1033,701,USA,,2014-03-18,2014-04-14,2014-03-18,2014-03-31,2014-09-15,,2014-09-15,,,,,,,,,,3,NA,2014-03-10,-8,74,YEARS,>64,M,WHITE,White,NOT HISPANIC OR LATINO,Y,Xanomeline Low Dose,Xan_Lo,Xanomeline Low Dose,Xan_Lo,Xanomeline Low Dose,Xanomeline Low Dose,2014-03-18,2014-03-18T00:00:00Z,H,2014-03-31,2014-03-31T23:59:59Z,H,DISCONTINUED,2014-04-14,,2014-03-18,2014-04-14,14,,,,,2014-04-01,15,Week 2,2,Composite Score,QBCSCORE,NEI VFQ-25,Averaged Result,70,,107.5,-37.5,-34.883720930232556,,,,,,,,,,,,,,,,4,WEEK 2,,,
367,CDISCPILOT01,01-701-1033,1033,701,USA,,2014-03-18,2014-04-14,2014-03-18,2014-03-31,2014-09-15,,2014-09-15,,,,,,,,,,4,NA,2014-03-10,-8,74,YEARS,>64,M,WHITE,White,NOT HISPANIC OR LATINO,Y,Xanomeline Low Dose,Xan_Lo,Xanomeline Low Dose,Xan_Lo,Xanomeline Low Dose,Xanomeline Low Dose,2014-03-18,2014-03-18T00:00:00Z,H,2014-03-31,2014-03-31T23:59:59Z,H,DISCONTINUED,2014-04-14,,2014-03-18,2014-04-14,14,,,,,2014-04-14,28,Week 4,4,Composite Score,QBCSCORE,NEI VFQ-25,Averaged Result,60,,107.5,-47.5,-44.18604651162791,,,,,,,,,,,,,,,,5,WEEK 4,,,
368,CDISCPILOT01,01-701-1033,1033,701,USA,,2014-03-18,2014-04-14,2014-03-18,2014-03-31,2014-09-15,,2014-09-15,,,,,,,,,,5,NA,2014-03-10,-8,74,YEARS,>64,M,WHITE,White,NOT HISPANIC OR LATINO,Y,Xanomeline Low Dose,Xan_Lo,Xanomeline Low Dose,Xan_Lo,Xanomeline Low Dose,Xanomeline Low Dose,2014-03-18,2014-03-18T00:00:00Z,H,2014-03-31,2014-03-31T23:59:59Z,H,DISCONTINUED,2014-04-14,,2014-03-18,2014-04-14,14,,,,,2014-09-15,182,,,Composite Score,QBCSCORE,NEI VFQ-25,Averaged Result,105,,107.5,-2.5,-2.3255813953488373,,,,,,,,,,,,,,,,201,RETRIEVAL,,,
369,CDISCPILOT01,01-701-1033,1033,701,USA,,2014-03-18,2014-04-14,2014-03-18,2014-03-31,2014-09-15,,2014-09-15,,,,,,,,,,6,NA,2014-03-10,-8,74,YEARS,>64,M,WHITE,White,NOT HISPANIC OR LATINO,Y,Xanomeline Low Dose,Xan_Lo,Xanomeline Low Dose,Xan_Lo,Xanomeline Low Dose,Xanomeline Low Dose,2014-03-18,2014-03-18T00:00:00Z,H,2014-03-31,2014-03-31T23:59:59Z,H,DISCONTINUED,2014-04-14,,2014-03-18,2014-04-14,14,,,,,2014-03-10,-8,,,Recoded Item - 01,QR01,NEI VFQ-25,General 01,100,,100,0,0,,,,,,,,,,,,,,,,1,SCREENING 1,,,
370,CDISCPILOT01,01-701-1033,1033,701,USA,,2014-03-18,2014-04-14,2014-03-18,2014-03-31,2014-09-15,,2014-09-15,,,,,,,,,,7,NA,2014-03-10,-8,74,YEARS,>64,M,WHITE,White,NOT HISPANIC OR LATINO,Y,Xanomeline Low Dose,Xan_Lo,Xanomeline Low Dose,Xan_Lo,Xanomeline Low Dose,Xanomeline Low Dose,2014-03-18,2014-03-18T00:00:00Z,H,2014-03-31,2014-03-31T23:59:59Z,H,DISCONTINUED,2014-04-14,,2014-03-18,2014-04-14,14,,,,,2014-03-18,1,Baseline,0,Recoded Item - 01,QR01,NEI VFQ-25,General 01,100,,100,0,0,Y,,,,,,,,,,,,,,,3,BASELINE,,,
371,CDISCPILOT01,01-701-1033,1033,701,USA,,2014-03-18,2014-04-14,2014-03-18,2014-03-31,2014-09-15,,2014-09-15,,,,,,,,,,8,NA,2014-03-10,-8,74,YEARS,>64,M,WHITE,White,NOT HISPANIC OR LATINO,Y,Xanomeline Low Dose,Xan_Lo,Xanomeline Low Dose,Xan_Lo,Xanomeline Low Dose,Xanomeline Low Dose,2014-03-18,2014-03-18T00:00:00Z,H,2014-03-31,2014-03-31T23:59:59Z,H,DISCONTINUED,2014-04-14,,2014-03-18,2014-04-14,14,,,,,2014-04-01,15,Week 2,2,Recoded Item - 01,QR01,NEI VFQ-25,General 01,0,,100,-100,-100,,,,,,,,,,,,,,,,4,WEEK 2,,,
372,CDISCPILOT01,01-701-1033,1033,701,USA,,2014-03-18,2014-04-14,2014-03-18,2014-03-31,2014-09-15,,2014-09-15,,,,,,,,,,9,NA,2014-03-10,-8,74,YEARS,>64,M,WHITE,White,NOT HISPANIC OR LATINO,Y,Xanomeline Low Dose,Xan_Lo,Xanomeline Low Dose,Xan_Lo,Xanomeline Low Dose,Xanomeline Low Dose,2014-03-18,2014-03-18T00:00:00Z,H,2014-03-31,2014-03-31T23:59:59Z,H,DISCONTINUED,2014-04-14,,2014-03-18,2014-04-14,14,,,,,2014-04-14,28,Week 4,4,Recoded Item - 01,QR01,NEI VFQ-25,General 01,25,,100,-75,-75,,,,,,,,,,,,,,,,5,WEEK 4,,,
373,CDISCPILOT01,01-701-1033,1033,701,USA,,2014-03-18,2014-04-14,2014-03-18,2014-03-31,2014-09-15,,2014-09-15,,,,,,,,,,10,NA,2014-03-10,-8,74,YEARS,>64,M,WHITE,White,NOT HISPANIC OR LATINO,Y,Xanomeline Low Dose,Xan_Lo,Xanomeline Low Dose,Xan_Lo,Xanomeline Low Dose,Xanomeline Low Dose,2014-03-18,2014-03-18T00:00:00Z,H,2014-03-31,2014-03-31T23:59:59Z,H,DISCONTINUED,2014-04-14,,2014-03-18,2014-04-14,14,,,,,2014-09-15,182,,,Recoded Item - 01,QR01,NEI VFQ-25,General 01,75,,100,-25,-25,,,,,,,,,,,,,,,,201,RETRIEVAL,,,
374,CDISCPILOT01,01-701-1033,1033,701,USA,,2014-03-18,2014-04-14,2014-03-18,2014-03-31,2014-09-15,,2014-09-15,,,,,,,,,,11,NA,2014-03-10,-8,74,YEARS,>64,M,WHITE,White,NOT HISPANIC OR LATINO,Y,Xanomeline Low Dose,Xan_Lo,Xanomeline Low Dose,Xan_Lo,Xanomeline Low Dose,Xanomeline Low Dose,2014-03-18,2014-03-18T00:00:00Z,H,2014-03-31,2014-03-31T23:59:59Z,H,DISCONTINUED,2014-04-14,,2014-03-18,2014-04-14,14,,,,,2014-03-10,-8,,,Recoded Item - 02,QR02,NEI VFQ-25,General 01,40,,40,0,0,,,,,,,,,,,,,,,,1,SCREENING 1,,,
375,CDISCPILOT01,01-701-1033,1033,701,USA,,2014-03-18,2014-04-14,2014-03-18,2014-03-31,2014-09-15,,2014-09-15,,,,,,,,,,12,NA,2014-03-10,-8,74,YEARS,>64,M,WHITE,White,NOT HISPANIC OR LATINO,Y,Xanomeline Low Dose,Xan_Lo,Xanomeline Low Dose,Xan_Lo,Xanomeline Low Dose,Xanomeline Low Dose,2014-03-18,2014-03-18T00:00:00Z,H,2014-03-31,2014-03-31T23:59:59Z,H,DISCONTINUED,2014-04-14,,2014-03-18,2014-04-14,14,,,,,2014-03-18,1,Baseline,0,Recoded Item - 02,QR02,NEI VFQ-25,General 01,40,,40,0,0,Y,,,,,,,,,,,,,,,3,BASELINE,,,
376,CDISCPILOT01,01-701-1033,1033,701,USA,,2014-03-18,2014-04-14,2014-03-18,2014-03-31,2014-09-15,,2014-09-15,,,,,,,,,,13,NA,2014-03-10,-8,74,YEARS,>64,M,WHITE,White,NOT HISPANIC OR LATINO,Y,Xanomeline Low Dose,Xan_Lo,Xanomeline Low Dose,Xan_Lo,Xanomeline Low Dose,Xanomeline Low Dose,2014-03-18,2014-03-18T00:00:00Z,H,2014-03-31,2014-03-31T23:59:59Z,H,DISCONTINUED,2014-04-14,,2014-03-18,2014-04-14,14,,,,,2014-04-01,15,Week 2,2,Recoded Item - 02,QR02,NEI VFQ-25,General 01,40,,40,0,0,,,,,,,,,,,,,,,,4,WEEK 2,,,
