rownames,STUDYID,RDOMAIN,USUBJID,IDVAR,IDVARVAL,QNAM,QLABEL,QVAL,QORIG
1,CDISCPILOT01,TR,01-701-1015,TRSEQ,1,TRLOC,Location of the Tumor,ADRENAL GLAND,CRF
2,CDISCPILOT01,TR,01-701-1015,TRSEQ,2,TRLOC,Location of the Tumor,ADRENAL GLAND,CRF
3,CDISCPILOT01,TR,01-701-1015,TRSEQ,3,TRLOC,Location of the Tumor,ADRENAL GLAND,CRF
4,CDISCPILOT01,TR,01-701-1015,TRSEQ,4,TRLOC,Location of the Tumor,LYMPH NODE,CRF
5,CDISCPILOT01,TR,01-701-1015,TRSEQ,5,TRLOC,Location of the Tumor,LYMPH NODE,CRF
6,CDISCPILOT01,TR,01-701-1015,TRSEQ,6,TRLOC,Location of the Tumor,LYMPH NODE,CRF
7,CDISCPILOT01,TR,01-701-1015,TRSEQ,7,TRLOC,Location of the Tumor,BLADDER,CRF
8,CDISCPILOT01,TR,01-701-1015,TRSEQ,8,TRLOC,Location of the Tumor,BLADDER,CRF
9,CDISCPILOT01,TR,01-701-1015,TRSEQ,9,TRLOC,Location of the Tumor,BLADDER,CRF
10,CDISCPILOT01,TR,01-701-1015,TRSEQ,10,TRLOC,Location of the Tumor,BODY,CRF
11,CDISCPILOT01,TR,01-701-1015,TRSEQ,11,TRLOC,Location of the Tumor,BODY,CRF
12,CDISCPILOT01,TR,01-701-1015,TRSEQ,12,TRLOC,Location of the Tumor,BODY,CRF
13,CDISCPILOT01,TR,01-701-1015,TRSEQ,13,TRLOC,Location of the Tumor,BONE,CRF
14,CDISCPILOT01,TR,01-701-1015,TRSEQ,14,TRLOC,Location of the Tumor,BONE,CRF
15,CDISCPILOT01,TR,01-701-1015,TRSEQ,15,TRLOC,Location of the Tumor,BONE,CRF
16,CDISCPILOT01,TR,01-701-1015,TRSEQ,16,TRLOC,Location of the Tumor,,CRF
17,CDISCPILOT01,TR,01-701-1015,TRSEQ,17,TRLOC,Location of the Tumor,,CRF
18,CDISCPILOT01,TR,01-701-1015,TRSEQ,18,TRLOC,Location of the Tumor,,CRF
19,CDISCPILOT01,TR,01-701-1015,TRSEQ,19,TRLOC,Location of the Tumor,,CRF
20,CDISCPILOT01,TR,01-701-1015,TRSEQ,20,TRLOC,Location of the Tumor,,CRF
21,CDISCPILOT01,TR,01-701-1015,TRSEQ,21,TRLOC,Location of the Tumor,,CRF
22,CDISCPILOT01,TR,01-701-1015,TRSEQ,22,TRLOC,Location of the Tumor,,CRF
23,CDISCPILOT01,TR,01-701-1015,TRSEQ,23,TRLOC,Location of the Tumor,,CRF
24,CDISCPILOT01,TR,01-701-1015,TRSEQ,24,TRLOC,Location of the Tumor,,CRF
25,CDISCPILOT01,TR,01-701-1015,TRSEQ,25,TRLOC,Location of the Tumor,,CRF
26,CDISCPILOT01,TR,01-701-1015,TRSEQ,26,TRLOC,Location of the Tumor,,CRF
27,CDISCPILOT01,TR,01-701-1015,TRSEQ,27,TRLOC,Location of the Tumor,,CRF
28,CDISCPILOT01,TR,01-701-1015,TRSEQ,28,TRLOC,Location of the Tumor,,CRF
29,CDISCPILOT01,TR,01-701-1015,TRSEQ,29,TRLOC,Location of the Tumor,,CRF
30,CDISCPILOT01,TR,01-701-1015,TRSEQ,30,TRLOC,Location of the Tumor,,CRF
31,CDISCPILOT01,TR,01-701-1015,TRSEQ,31,TRLOC,Location of the Tumor,,CRF
32,CDISCPILOT01,TR,01-701-1015,TRSEQ,32,TRLOC,Location of the Tumor,ADRENAL GLAND,CRF
33,CDISCPILOT01,TR,01-701-1015,TRSEQ,33,TRLOC,Location of the Tumor,ADRENAL GLAND,CRF
34,CDISCPILOT01,TR,01-701-1015,TRSEQ,34,TRLOC,Location of the Tumor,ADRENAL GLAND,CRF
35,CDISCPILOT01,TR,01-701-1015,TRSEQ,35,TRLOC,Location of the Tumor,LYMPH NODE,CRF
36,CDISCPILOT01,TR,01-701-1015,TRSEQ,36,TRLOC,Location of the Tumor,LYMPH NODE,CRF
37,CDISCPILOT01,TR,01-701-1015,TRSEQ,37,TRLOC,Location of the Tumor,LYMPH NODE,CRF
38,CDISCPILOT01,TR,01-701-1015,TRSEQ,38,TRLOC,Location of the Tumor,BLADDER,CRF
39,CDISCPILOT01,TR,01-701-1015,TRSEQ,39,TRLOC,Location of the Tumor,BLADDER,CRF
40,CDISCPILOT01,TR,01-701-1015,TRSEQ,40,TRLOC,Location of the Tumor,BLADDER,CRF
41,CDISCPILOT01,TR,01-701-1015,TRSEQ,41,TRLOC,Location of the Tumor,BODY,CRF
42,CDISCPILOT01,TR,01-701-1015,TRSEQ,42,TRLOC,Location of the Tumor,BODY,CRF
43,CDISCPILOT01,TR,01-701-1015,TRSEQ,43,TRLOC,Location of the Tumor,BODY,CRF
44,CDISCPILOT01,TR,01-701-1015,TRSEQ,44,TRLOC,Location of the Tumor,BONE,CRF
45,CDISCPILOT01,TR,01-701-1015,TRSEQ,45,TRLOC,Location of the Tumor,BONE,CRF
46,CDISCPILOT01,TR,01-701-1015,TRSEQ,46,TRLOC,Location of the Tumor,BONE,CRF
47,CDISCPILOT01,TR,01-701-1015,TRSEQ,47,TRLOC,Location of the Tumor,BLADDER,CRF
48,CDISCPILOT01,TR,01-701-1015,TRSEQ,48,TRLOC,Location of the Tumor,BLADDER,CRF
49,CDISCPILOT01,TR,01-701-1015,TRSEQ,49,TRLOC,Location of the Tumor,BLADDER,CRF
50,CDISCPILOT01,TR,01-701-1015,TRSEQ,50,TRLOC,Location of the Tumor,BODY,CRF
51,CDISCPILOT01,TR,01-701-1015,TRSEQ,51,TRLOC,Location of the Tumor,BODY,CRF
52,CDISCPILOT01,TR,01-701-1015,TRSEQ,52,TRLOC,Location of the Tumor,BODY,CRF
53,CDISCPILOT01,TR,01-701-1015,TRSEQ,53,TRLOC,Location of the Tumor,BONE,CRF
54,CDISCPILOT01,TR,01-701-1015,TRSEQ,54,TRLOC,Location of the Tumor,BONE,CRF
55,CDISCPILOT01,TR,01-701-1015,TRSEQ,55,TRLOC,Location of the Tumor,BONE,CRF
56,CDISCPILOT01,TR,01-701-1015,TRSEQ,56,TRLOC,Location of the Tumor,BREAST,CRF
57,CDISCPILOT01,TR,01-701-1015,TRSEQ,57,TRLOC,Location of the Tumor,BREAST,CRF
58,CDISCPILOT01,TR,01-701-1015,TRSEQ,58,TRLOC,Location of the Tumor,BREAST,CRF
59,CDISCPILOT01,TR,01-701-1015,TRSEQ,59,TRLOC,Location of the Tumor,CHEST,CRF
60,CDISCPILOT01,TR,01-701-1015,TRSEQ,60,TRLOC,Location of the Tumor,CHEST,CRF
61,CDISCPILOT01,TR,01-701-1015,TRSEQ,61,TRLOC,Location of the Tumor,CHEST,CRF
62,CDISCPILOT01,TR,01-701-1015,TRSEQ,62,TRLOC,Location of the Tumor,,CRF
63,CDISCPILOT01,TR,01-701-1015,TRSEQ,63,TRLOC,Location of the Tumor,,CRF
64,CDISCPILOT01,TR,01-701-1015,TRSEQ,64,TRLOC,Location of the Tumor,,CRF
65,CDISCPILOT01,TR,01-701-1015,TRSEQ,65,TRLOC,Location of the Tumor,,CRF
66,CDISCPILOT01,TR,01-701-1015,TRSEQ,66,TRLOC,Location of the Tumor,,CRF
67,CDISCPILOT01,TR,01-701-1015,TRSEQ,67,TRLOC,Location of the Tumor,,CRF
68,CDISCPILOT01,TR,01-701-1015,TRSEQ,68,TRLOC,Location of the Tumor,,CRF
69,CDISCPILOT01,TR,01-701-1015,TRSEQ,69,TRLOC,Location of the Tumor,,CRF
70,CDISCPILOT01,TR,01-701-1015,TRSEQ,70,TRLOC,Location of the Tumor,,CRF
71,CDISCPILOT01,TR,01-701-1015,TRSEQ,71,TRLOC,Location of the Tumor,,CRF
72,CDISCPILOT01,TR,01-701-1015,TRSEQ,72,TRLOC,Location of the Tumor,,CRF
73,CDISCPILOT01,TR,01-701-1015,TRSEQ,73,TRLOC,Location of the Tumor,,CRF
74,CDISCPILOT01,TR,01-701-1015,TRSEQ,74,TRLOC,Location of the Tumor,,CRF
75,CDISCPILOT01,TR,01-701-1015,TRSEQ,75,TRLOC,Location of the Tumor,,CRF
76,CDISCPILOT01,TR,01-701-1015,TRSEQ,76,TRLOC,Location of the Tumor,,CRF
77,CDISCPILOT01,TR,01-701-1015,TRSEQ,77,TRLOC,Location of the Tumor,,CRF
78,CDISCPILOT01,TR,01-701-1015,TRSEQ,78,TRLOC,Location of the Tumor,,CRF
79,CDISCPILOT01,TR,01-701-1015,TRSEQ,79,TRLOC,Location of the Tumor,LYMPH NODE,CRF
80,CDISCPILOT01,TR,01-701-1015,TRSEQ,80,TRLOC,Location of the Tumor,LYMPH NODE,CRF
81,CDISCPILOT01,TR,01-701-1015,TRSEQ,81,TRLOC,Location of the Tumor,LYMPH NODE,CRF
82,CDISCPILOT01,TR,01-701-1015,TRSEQ,82,TRLOC,Location of the Tumor,BLADDER,CRF
83,CDISCPILOT01,TR,01-701-1015,TRSEQ,83,TRLOC,Location of the Tumor,BLADDER,CRF
84,CDISCPILOT01,TR,01-701-1015,TRSEQ,84,TRLOC,Location of the Tumor,BLADDER,CRF
85,CDISCPILOT01,TR,01-701-1015,TRSEQ,85,TRLOC,Location of the Tumor,BODY,CRF
86,CDISCPILOT01,TR,01-701-1015,TRSEQ,86,TRLOC,Location of the Tumor,BODY,CRF
87,CDISCPILOT01,TR,01-701-1015,TRSEQ,87,TRLOC,Location of the Tumor,BODY,CRF
88,CDISCPILOT01,TR,01-701-1015,TRSEQ,88,TRLOC,Location of the Tumor,BONE,CRF
89,CDISCPILOT01,TR,01-701-1015,TRSEQ,89,TRLOC,Location of the Tumor,BONE,CRF
90,CDISCPILOT01,TR,01-701-1015,TRSEQ,90,TRLOC,Location of the Tumor,BONE,CRF
91,CDISCPILOT01,TR,01-701-1015,TRSEQ,91,TRLOC,Location of the Tumor,BREAST,CRF
92,CDISCPILOT01,TR,01-701-1015,TRSEQ,92,TRLOC,Location of the Tumor,BREAST,CRF
93,CDISCPILOT01,TR,01-701-1015,TRSEQ,93,TRLOC,Location of the Tumor,BREAST,CRF
94,CDISCPILOT01,TR,01-701-1015,TRSEQ,94,TRLOC,Location of the Tumor,BLADDER,CRF
95,CDISCPILOT01,TR,01-701-1015,TRSEQ,95,TRLOC,Location of the Tumor,BLADDER,CRF
96,CDISCPILOT01,TR,01-701-1015,TRSEQ,96,TRLOC,Location of the Tumor,BLADDER,CRF
97,CDISCPILOT01,TR,01-701-1015,TRSEQ,97,TRLOC,Location of the Tumor,BODY,CRF
98,CDISCPILOT01,TR,01-701-1015,TRSEQ,98,TRLOC,Location of the Tumor,BODY,CRF
99,CDISCPILOT01,TR,01-701-1015,TRSEQ,99,TRLOC,Location of the Tumor,BODY,CRF
100,CDISCPILOT01,TR,01-701-1015,TRSEQ,100,TRLOC,Location of the Tumor,BONE,CRF
101,CDISCPILOT01,TR,01-701-1015,TRSEQ,101,TRLOC,Location of the Tumor,BONE,CRF
102,CDISCPILOT01,TR,01-701-1015,TRSEQ,102,TRLOC,Location of the Tumor,BONE,CRF
103,CDISCPILOT01,TR,01-701-1015,TRSEQ,103,TRLOC,Location of the Tumor,BREAST,CRF
104,CDISCPILOT01,TR,01-701-1015,TRSEQ,104,TRLOC,Location of the Tumor,BREAST,CRF
105,CDISCPILOT01,TR,01-701-1015,TRSEQ,105,TRLOC,Location of the Tumor,BREAST,CRF
106,CDISCPILOT01,TR,01-701-1015,TRSEQ,106,TRLOC,Location of the Tumor,CHEST,CRF
107,CDISCPILOT01,TR,01-701-1015,TRSEQ,107,TRLOC,Location of the Tumor,CHEST,CRF
108,CDISCPILOT01,TR,01-701-1015,TRSEQ,108,TRLOC,Location of the Tumor,CHEST,CRF
109,CDISCPILOT01,TR,01-701-1015,TRSEQ,109,TRLOC,Location of the Tumor,ADRENAL GLAND,CRF
110,CDISCPILOT01,TR,01-701-1015,TRSEQ,110,TRLOC,Location of the Tumor,ADRENAL GLAND,CRF
111,CDISCPILOT01,TR,01-701-1015,TRSEQ,111,TRLOC,Location of the Tumor,ADRENAL GLAND,CRF
112,CDISCPILOT01,TR,01-701-1015,TRSEQ,112,TRLOC,Location of the Tumor,LYMPH NODE,CRF
113,CDISCPILOT01,TR,01-701-1015,TRSEQ,113,TRLOC,Location of the Tumor,LYMPH NODE,CRF
114,CDISCPILOT01,TR,01-701-1015,TRSEQ,114,TRLOC,Location of the Tumor,LYMPH NODE,CRF
115,CDISCPILOT01,TR,01-701-1015,TRSEQ,115,TRLOC,Location of the Tumor,BLADDER,CRF
116,CDISCPILOT01,TR,01-701-1015,TRSEQ,116,TRLOC,Location of the Tumor,BLADDER,CRF
117,CDISCPILOT01,TR,01-701-1015,TRSEQ,117,TRLOC,Location of the Tumor,BLADDER,CRF
118,CDISCPILOT01,TR,01-701-1015,TRSEQ,118,TRLOC,Location of the Tumor,BODY,CRF
119,CDISCPILOT01,TR,01-701-1015,TRSEQ,119,TRLOC,Location of the Tumor,BODY,CRF
120,CDISCPILOT01,TR,01-701-1015,TRSEQ,120,TRLOC,Location of the Tumor,BODY,CRF
121,CDISCPILOT01,TR,01-701-1015,TRSEQ,121,TRLOC,Location of the Tumor,BONE,CRF
122,CDISCPILOT01,TR,01-701-1015,TRSEQ,122,TRLOC,Location of the Tumor,BONE,CRF
123,CDISCPILOT01,TR,01-701-1015,TRSEQ,123,TRLOC,Location of the Tumor,BONE,CRF
124,CDISCPILOT01,TR,01-701-1015,TRSEQ,124,TRLOC,Location of the Tumor,,CRF
125,CDISCPILOT01,TR,01-701-1015,TRSEQ,125,TRLOC,Location of the Tumor,,CRF
126,CDISCPILOT01,TR,01-701-1015,TRSEQ,126,TRLOC,Location of the Tumor,,CRF
127,CDISCPILOT01,TR,01-701-1015,TRSEQ,127,TRLOC,Location of the Tumor,,CRF
128,CDISCPILOT01,TR,01-701-1015,TRSEQ,128,TRLOC,Location of the Tumor,,CRF
129,CDISCPILOT01,TR,01-701-1015,TRSEQ,129,TRLOC,Location of the Tumor,,CRF
130,CDISCPILOT01,TR,01-701-1015,TRSEQ,130,TRLOC,Location of the Tumor,,CRF
131,CDISCPILOT01,TR,01-701-1015,TRSEQ,131,TRLOC,Location of the Tumor,,CRF
132,CDISCPILOT01,TR,01-701-1015,TRSEQ,132,TRLOC,Location of the Tumor,,CRF
133,CDISCPILOT01,TR,01-701-1015,TRSEQ,133,TRLOC,Location of the Tumor,,CRF
134,CDISCPILOT01,TR,01-701-1015,TRSEQ,134,TRLOC,Location of the Tumor,,CRF
135,CDISCPILOT01,TR,01-701-1015,TRSEQ,135,TRLOC,Location of the Tumor,,CRF
136,CDISCPILOT01,TR,01-701-1015,TRSEQ,136,TRLOC,Location of the Tumor,,CRF
137,CDISCPILOT01,TR,01-701-1015,TRSEQ,137,TRLOC,Location of the Tumor,,CRF
138,CDISCPILOT01,TR,01-701-1015,TRSEQ,138,TRLOC,Location of the Tumor,,CRF
139,CDISCPILOT01,TR,01-701-1015,TRSEQ,139,TRLOC,Location of the Tumor,,CRF
140,CDISCPILOT01,TR,01-701-1015,TRSEQ,140,TRLOC,Location of the Tumor,,CRF
141,CDISCPILOT01,TR,01-701-1015,TRSEQ,141,TRLOC,Location of the Tumor,,CRF
142,CDISCPILOT01,TR,01-701-1015,TRSEQ,142,TRLOC,Location of the Tumor,ABDOMINAL CAVITY,CRF
143,CDISCPILOT01,TR,01-701-1015,TRSEQ,143,TRLOC,Location of the Tumor,ABDOMINAL CAVITY,CRF
144,CDISCPILOT01,TR,01-701-1015,TRSEQ,144,TRLOC,Location of the Tumor,ABDOMINAL CAVITY,CRF
145,CDISCPILOT01,TR,01-701-1015,TRSEQ,145,TRLOC,Location of the Tumor,ADRENAL GLAND,CRF
146,CDISCPILOT01,TR,01-701-1015,TRSEQ,146,TRLOC,Location of the Tumor,ADRENAL GLAND,CRF
147,CDISCPILOT01,TR,01-701-1015,TRSEQ,147,TRLOC,Location of the Tumor,ADRENAL GLAND,CRF
148,CDISCPILOT01,TR,01-701-1015,TRSEQ,148,TRLOC,Location of the Tumor,LYMPH NODE,CRF
149,CDISCPILOT01,TR,01-701-1015,TRSEQ,149,TRLOC,Location of the Tumor,LYMPH NODE,CRF
150,CDISCPILOT01,TR,01-701-1015,TRSEQ,150,TRLOC,Location of the Tumor,LYMPH NODE,CRF
151,CDISCPILOT01,TR,01-701-1015,TRSEQ,151,TRLOC,Location of the Tumor,BLADDER,CRF
152,CDISCPILOT01,TR,01-701-1015,TRSEQ,152,TRLOC,Location of the Tumor,BLADDER,CRF
153,CDISCPILOT01,TR,01-701-1015,TRSEQ,153,TRLOC,Location of the Tumor,BLADDER,CRF
154,CDISCPILOT01,TR,01-701-1015,TRSEQ,154,TRLOC,Location of the Tumor,BODY,CRF
155,CDISCPILOT01,TR,01-701-1015,TRSEQ,155,TRLOC,Location of the Tumor,BODY,CRF
156,CDISCPILOT01,TR,01-701-1015,TRSEQ,156,TRLOC,Location of the Tumor,BODY,CRF
157,CDISCPILOT01,TR,01-701-1015,TRSEQ,157,TRLOC,Location of the Tumor,ABDOMINAL CAVITY,CRF
158,CDISCPILOT01,TR,01-701-1015,TRSEQ,158,TRLOC,Location of the Tumor,ABDOMINAL CAVITY,CRF
159,CDISCPILOT01,TR,01-701-1015,TRSEQ,159,TRLOC,Location of the Tumor,ABDOMINAL CAVITY,CRF
160,CDISCPILOT01,TR,01-701-1015,TRSEQ,160,TRLOC,Location of the Tumor,ADRENAL GLAND,CRF
161,CDISCPILOT01,TR,01-701-1015,TRSEQ,161,TRLOC,Location of the Tumor,ADRENAL GLAND,CRF
162,CDISCPILOT01,TR,01-701-1015,TRSEQ,162,TRLOC,Location of the Tumor,ADRENAL GLAND,CRF
163,CDISCPILOT01,TR,01-701-1015,TRSEQ,163,TRLOC,Location of the Tumor,LYMPH NODE,CRF
164,CDISCPILOT01,TR,01-701-1015,TRSEQ,164,TRLOC,Location of the Tumor,LYMPH NODE,CRF
165,CDISCPILOT01,TR,01-701-1015,TRSEQ,165,TRLOC,Location of the Tumor,LYMPH NODE,CRF
166,CDISCPILOT01,TR,01-701-1015,TRSEQ,166,TRLOC,Location of the Tumor,BLADDER,CRF
167,CDISCPILOT01,TR,01-701-1015,TRSEQ,167,TRLOC,Location of the Tumor,BLADDER,CRF
168,CDISCPILOT01,TR,01-701-1015,TRSEQ,168,TRLOC,Location of the Tumor,BLADDER,CRF
169,CDISCPILOT01,TR,01-701-1015,TRSEQ,169,TRLOC,Location of the Tumor,BODY,CRF
170,CDISCPILOT01,TR,01-701-1015,TRSEQ,170,TRLOC,Location of the Tumor,BODY,CRF
171,CDISCPILOT01,TR,01-701-1015,TRSEQ,171,TRLOC,Location of the Tumor,BODY,CRF
172,CDISCPILOT01,TR,01-701-1015,TRSEQ,172,TRLOC,Location of the Tumor,LYMPH NODE,CRF
173,CDISCPILOT01,TR,01-701-1015,TRSEQ,173,TRLOC,Location of the Tumor,LYMPH NODE,CRF
174,CDISCPILOT01,TR,01-701-1015,TRSEQ,174,TRLOC,Location of the Tumor,LYMPH NODE,CRF
175,CDISCPILOT01,TR,01-701-1015,TRSEQ,175,TRLOC,Location of the Tumor,BLADDER,CRF
176,CDISCPILOT01,TR,01-701-1015,TRSEQ,176,TRLOC,Location of the Tumor,BLADDER,CRF
177,CDISCPILOT01,TR,01-701-1015,TRSEQ,177,TRLOC,Location of the Tumor,BLADDER,CRF
178,CDISCPILOT01,TR,01-701-1015,TRSEQ,178,TRLOC,Location of the Tumor,BODY,CRF
179,CDISCPILOT01,TR,01-701-1015,TRSEQ,179,TRLOC,Location of the Tumor,BODY,CRF
180,CDISCPILOT01,TR,01-701-1015,TRSEQ,180,TRLOC,Location of the Tumor,BODY,CRF
181,CDISCPILOT01,TR,01-701-1015,TRSEQ,181,TRLOC,Location of the Tumor,BONE,CRF
182,CDISCPILOT01,TR,01-701-1015,TRSEQ,182,TRLOC,Location of the Tumor,BONE,CRF
183,CDISCPILOT01,TR,01-701-1015,TRSEQ,183,TRLOC,Location of the Tumor,BONE,CRF
184,CDISCPILOT01,TR,01-701-1015,TRSEQ,184,TRLOC,Location of the Tumor,BREAST,CRF
185,CDISCPILOT01,TR,01-701-1015,TRSEQ,185,TRLOC,Location of the Tumor,BREAST,CRF
186,CDISCPILOT01,TR,01-701-1015,TRSEQ,186,TRLOC,Location of the Tumor,BREAST,CRF
187,CDISCPILOT01,TR,01-701-1015,TRSEQ,187,TRLOC,Location of the Tumor,,CRF
188,CDISCPILOT01,TR,01-701-1015,TRSEQ,188,TRLOC,Location of the Tumor,,CRF
189,CDISCPILOT01,TR,01-701-1015,TRSEQ,189,TRLOC,Location of the Tumor,,CRF
190,CDISCPILOT01,TR,01-701-1015,TRSEQ,190,TRLOC,Location of the Tumor,,CRF
191,CDISCPILOT01,TR,01-701-1015,TRSEQ,191,TRLOC,Location of the Tumor,,CRF
192,CDISCPILOT01,TR,01-701-1015,TRSEQ,192,TRLOC,Location of the Tumor,,CRF
193,CDISCPILOT01,TR,01-701-1015,TRSEQ,193,TRLOC,Location of the Tumor,,CRF
194,CDISCPILOT01,TR,01-701-1015,TRSEQ,194,TRLOC,Location of the Tumor,,CRF
195,CDISCPILOT01,TR,01-701-1015,TRSEQ,195,TRLOC,Location of the Tumor,,CRF
196,CDISCPILOT01,TR,01-701-1015,TRSEQ,196,TRLOC,Location of the Tumor,,CRF
197,CDISCPILOT01,TR,01-701-1015,TRSEQ,197,TRLOC,Location of the Tumor,,CRF
198,CDISCPILOT01,TR,01-701-1015,TRSEQ,198,TRLOC,Location of the Tumor,,CRF
199,CDISCPILOT01,TR,01-701-1015,TRSEQ,199,TRLOC,Location of the Tumor,,CRF
200,CDISCPILOT01,TR,01-701-1015,TRSEQ,200,TRLOC,Location of the Tumor,,CRF
201,CDISCPILOT01,TR,01-701-1015,TRSEQ,201,TRLOC,Location of the Tumor,,CRF
202,CDISCPILOT01,TR,01-701-1015,TRSEQ,202,TRLOC,Location of the Tumor,,CRF
203,CDISCPILOT01,TR,01-701-1015,TRSEQ,203,TRLOC,Location of the Tumor,,CRF
204,CDISCPILOT01,TR,01-701-1015,TRSEQ,204,TRLOC,Location of the Tumor,,CRF
205,CDISCPILOT01,TR,01-701-1015,TRSEQ,205,TRLOC,Location of the Tumor,LYMPH NODE,CRF
206,CDISCPILOT01,TR,01-701-1015,TRSEQ,206,TRLOC,Location of the Tumor,LYMPH NODE,CRF
207,CDISCPILOT01,TR,01-701-1015,TRSEQ,207,TRLOC,Location of the Tumor,LYMPH NODE,CRF
208,CDISCPILOT01,TR,01-701-1015,TRSEQ,208,TRLOC,Location of the Tumor,BLADDER,CRF
209,CDISCPILOT01,TR,01-701-1015,TRSEQ,209,TRLOC,Location of the Tumor,BLADDER,CRF
210,CDISCPILOT01,TR,01-701-1015,TRSEQ,210,TRLOC,Location of the Tumor,BLADDER,CRF
211,CDISCPILOT01,TR,01-701-1015,TRSEQ,211,TRLOC,Location of the Tumor,BODY,CRF
212,CDISCPILOT01,TR,01-701-1015,TRSEQ,212,TRLOC,Location of the Tumor,BODY,CRF
213,CDISCPILOT01,TR,01-701-1015,TRSEQ,213,TRLOC,Location of the Tumor,BODY,CRF
214,CDISCPILOT01,TR,01-701-1015,TRSEQ,214,TRLOC,Location of the Tumor,BONE,CRF
215,CDISCPILOT01,TR,01-701-1015,TRSEQ,215,TRLOC,Location of the Tumor,BONE,CRF
216,CDISCPILOT01,TR,01-701-1015,TRSEQ,216,TRLOC,Location of the Tumor,BONE,CRF
217,CDISCPILOT01,TR,01-701-1015,TRSEQ,217,TRLOC,Location of the Tumor,BREAST,CRF
218,CDISCPILOT01,TR,01-701-1015,TRSEQ,218,TRLOC,Location of the Tumor,BREAST,CRF
219,CDISCPILOT01,TR,01-701-1015,TRSEQ,219,TRLOC,Location of the Tumor,BREAST,CRF
220,CDISCPILOT01,TR,01-701-1015,TRSEQ,220,TRLOC,Location of the Tumor,BLADDER,CRF
221,CDISCPILOT01,TR,01-701-1015,TRSEQ,221,TRLOC,Location of the Tumor,BLADDER,CRF
222,CDISCPILOT01,TR,01-701-1015,TRSEQ,222,TRLOC,Location of the Tumor,BLADDER,CRF
223,CDISCPILOT01,TR,01-701-1015,TRSEQ,223,TRLOC,Location of the Tumor,BODY,CRF
224,CDISCPILOT01,TR,01-701-1015,TRSEQ,224,TRLOC,Location of the Tumor,BODY,CRF
225,CDISCPILOT01,TR,01-701-1015,TRSEQ,225,TRLOC,Location of the Tumor,BODY,CRF
226,CDISCPILOT01,TR,01-701-1015,TRSEQ,226,TRLOC,Location of the Tumor,BONE,CRF
227,CDISCPILOT01,TR,01-701-1015,TRSEQ,227,TRLOC,Location of the Tumor,BONE,CRF
228,CDISCPILOT01,TR,01-701-1015,TRSEQ,228,TRLOC,Location of the Tumor,BONE,CRF
229,CDISCPILOT01,TR,01-701-1015,TRSEQ,229,TRLOC,Location of the Tumor,BREAST,CRF
230,CDISCPILOT01,TR,01-701-1015,TRSEQ,230,TRLOC,Location of the Tumor,BREAST,CRF
231,CDISCPILOT01,TR,01-701-1015,TRSEQ,231,TRLOC,Location of the Tumor,BREAST,CRF
232,CDISCPILOT01,TR,01-701-1015,TRSEQ,232,TRLOC,Location of the Tumor,CHEST,CRF
233,CDISCPILOT01,TR,01-701-1015,TRSEQ,233,TRLOC,Location of the Tumor,CHEST,CRF
234,CDISCPILOT01,TR,01-701-1015,TRSEQ,234,TRLOC,Location of the Tumor,CHEST,CRF
235,CDISCPILOT01,TR,01-701-1015,TRSEQ,235,TRLOC,Location of the Tumor,BLADDER,CRF
236,CDISCPILOT01,TR,01-701-1015,TRSEQ,236,TRLOC,Location of the Tumor,BLADDER,CRF
237,CDISCPILOT01,TR,01-701-1015,TRSEQ,237,TRLOC,Location of the Tumor,BLADDER,CRF
238,CDISCPILOT01,TR,01-701-1015,TRSEQ,238,TRLOC,Location of the Tumor,BODY,CRF
239,CDISCPILOT01,TR,01-701-1015,TRSEQ,239,TRLOC,Location of the Tumor,BODY,CRF
240,CDISCPILOT01,TR,01-701-1015,TRSEQ,240,TRLOC,Location of the Tumor,BODY,CRF
241,CDISCPILOT01,TR,01-701-1015,TRSEQ,241,TRLOC,Location of the Tumor,BONE,CRF
242,CDISCPILOT01,TR,01-701-1015,TRSEQ,242,TRLOC,Location of the Tumor,BONE,CRF
243,CDISCPILOT01,TR,01-701-1015,TRSEQ,243,TRLOC,Location of the Tumor,BONE,CRF
244,CDISCPILOT01,TR,01-701-1015,TRSEQ,244,TRLOC,Location of the Tumor,BREAST,CRF
245,CDISCPILOT01,TR,01-701-1015,TRSEQ,245,TRLOC,Location of the Tumor,BREAST,CRF
246,CDISCPILOT01,TR,01-701-1015,TRSEQ,246,TRLOC,Location of the Tumor,BREAST,CRF
247,CDISCPILOT01,TR,01-701-1015,TRSEQ,247,TRLOC,Location of the Tumor,CHEST,CRF
248,CDISCPILOT01,TR,01-701-1015,TRSEQ,248,TRLOC,Location of the Tumor,CHEST,CRF
249,CDISCPILOT01,TR,01-701-1015,TRSEQ,249,TRLOC,Location of the Tumor,CHEST,CRF
250,CDISCPILOT01,TR,01-701-1015,TRSEQ,250,TRLOC,Location of the Tumor,,CRF
251,CDISCPILOT01,TR,01-701-1015,TRSEQ,251,TRLOC,Location of the Tumor,,CRF
252,CDISCPILOT01,TR,01-701-1015,TRSEQ,252,TRLOC,Location of the Tumor,,CRF
253,CDISCPILOT01,TR,01-701-1023,TRSEQ,1,TRLOC,Location of the Tumor,,CRF
254,CDISCPILOT01,TR,01-701-1023,TRSEQ,2,TRLOC,Location of the Tumor,,CRF
255,CDISCPILOT01,TR,01-701-1023,TRSEQ,3,TRLOC,Location of the Tumor,,CRF
256,CDISCPILOT01,TR,01-701-1023,TRSEQ,4,TRLOC,Location of the Tumor,,CRF
257,CDISCPILOT01,TR,01-701-1023,TRSEQ,5,TRLOC,Location of the Tumor,,CRF
258,CDISCPILOT01,TR,01-701-1023,TRSEQ,6,TRLOC,Location of the Tumor,,CRF
259,CDISCPILOT01,TR,01-701-1023,TRSEQ,7,TRLOC,Location of the Tumor,,CRF
260,CDISCPILOT01,TR,01-701-1023,TRSEQ,8,TRLOC,Location of the Tumor,,CRF
261,CDISCPILOT01,TR,01-701-1023,TRSEQ,9,TRLOC,Location of the Tumor,,CRF
262,CDISCPILOT01,TR,01-701-1023,TRSEQ,10,TRLOC,Location of the Tumor,,CRF
263,CDISCPILOT01,TR,01-701-1023,TRSEQ,11,TRLOC,Location of the Tumor,,CRF
264,CDISCPILOT01,TR,01-701-1023,TRSEQ,12,TRLOC,Location of the Tumor,,CRF
265,CDISCPILOT01,TR,01-701-1023,TRSEQ,13,TRLOC,Location of the Tumor,,CRF
266,CDISCPILOT01,TR,01-701-1023,TRSEQ,14,TRLOC,Location of the Tumor,,CRF
267,CDISCPILOT01,TR,01-701-1023,TRSEQ,15,TRLOC,Location of the Tumor,,CRF
268,CDISCPILOT01,TR,01-701-1023,TRSEQ,16,TRLOC,Location of the Tumor,BLADDER,CRF
269,CDISCPILOT01,TR,01-701-1023,TRSEQ,17,TRLOC,Location of the Tumor,BLADDER,CRF
270,CDISCPILOT01,TR,01-701-1023,TRSEQ,18,TRLOC,Location of the Tumor,BLADDER,CRF
271,CDISCPILOT01,TR,01-701-1023,TRSEQ,19,TRLOC,Location of the Tumor,BODY,CRF
272,CDISCPILOT01,TR,01-701-1023,TRSEQ,20,TRLOC,Location of the Tumor,BODY,CRF
273,CDISCPILOT01,TR,01-701-1023,TRSEQ,21,TRLOC,Location of the Tumor,BODY,CRF
274,CDISCPILOT01,TR,01-701-1023,TRSEQ,22,TRLOC,Location of the Tumor,BONE,CRF
275,CDISCPILOT01,TR,01-701-1023,TRSEQ,23,TRLOC,Location of the Tumor,BONE,CRF
276,CDISCPILOT01,TR,01-701-1023,TRSEQ,24,TRLOC,Location of the Tumor,BONE,CRF
277,CDISCPILOT01,TR,01-701-1023,TRSEQ,25,TRLOC,Location of the Tumor,BREAST,CRF
278,CDISCPILOT01,TR,01-701-1023,TRSEQ,26,TRLOC,Location of the Tumor,BREAST,CRF
279,CDISCPILOT01,TR,01-701-1023,TRSEQ,27,TRLOC,Location of the Tumor,BREAST,CRF
280,CDISCPILOT01,TR,01-701-1023,TRSEQ,28,TRLOC,Location of the Tumor,CHEST,CRF
281,CDISCPILOT01,TR,01-701-1023,TRSEQ,29,TRLOC,Location of the Tumor,CHEST,CRF
282,CDISCPILOT01,TR,01-701-1023,TRSEQ,30,TRLOC,Location of the Tumor,CHEST,CRF
283,CDISCPILOT01,TR,01-701-1023,TRSEQ,31,TRLOC,Location of the Tumor,ABDOMINAL CAVITY,CRF
284,CDISCPILOT01,TR,01-701-1023,TRSEQ,32,TRLOC,Location of the Tumor,ABDOMINAL CAVITY,CRF
285,CDISCPILOT01,TR,01-701-1023,TRSEQ,33,TRLOC,Location of the Tumor,ABDOMINAL CAVITY,CRF
286,CDISCPILOT01,TR,01-701-1023,TRSEQ,34,TRLOC,Location of the Tumor,ADRENAL GLAND,CRF
287,CDISCPILOT01,TR,01-701-1023,TRSEQ,35,TRLOC,Location of the Tumor,ADRENAL GLAND,CRF
288,CDISCPILOT01,TR,01-701-1023,TRSEQ,36,TRLOC,Location of the Tumor,ADRENAL GLAND,CRF
289,CDISCPILOT01,TR,01-701-1023,TRSEQ,37,TRLOC,Location of the Tumor,LYMPH NODE,CRF
290,CDISCPILOT01,TR,01-701-1023,TRSEQ,38,TRLOC,Location of the Tumor,LYMPH NODE,CRF
291,CDISCPILOT01,TR,01-701-1023,TRSEQ,39,TRLOC,Location of the Tumor,LYMPH NODE,CRF
292,CDISCPILOT01,TR,01-701-1023,TRSEQ,40,TRLOC,Location of the Tumor,BLADDER,CRF
293,CDISCPILOT01,TR,01-701-1023,TRSEQ,41,TRLOC,Location of the Tumor,BLADDER,CRF
294,CDISCPILOT01,TR,01-701-1023,TRSEQ,42,TRLOC,Location of the Tumor,BLADDER,CRF
295,CDISCPILOT01,TR,01-701-1023,TRSEQ,43,TRLOC,Location of the Tumor,BODY,CRF
296,CDISCPILOT01,TR,01-701-1023,TRSEQ,44,TRLOC,Location of the Tumor,BODY,CRF
297,CDISCPILOT01,TR,01-701-1023,TRSEQ,45,TRLOC,Location of the Tumor,BODY,CRF
298,CDISCPILOT01,TR,01-701-1023,TRSEQ,46,TRLOC,Location of the Tumor,ABDOMINAL CAVITY,CRF
299,CDISCPILOT01,TR,01-701-1023,TRSEQ,47,TRLOC,Location of the Tumor,ABDOMINAL CAVITY,CRF
300,CDISCPILOT01,TR,01-701-1023,TRSEQ,48,TRLOC,Location of the Tumor,ABDOMINAL CAVITY,CRF
301,CDISCPILOT01,TR,01-701-1023,TRSEQ,49,TRLOC,Location of the Tumor,ADRENAL GLAND,CRF
302,CDISCPILOT01,TR,01-701-1023,TRSEQ,50,TRLOC,Location of the Tumor,ADRENAL GLAND,CRF
303,CDISCPILOT01,TR,01-701-1023,TRSEQ,51,TRLOC,Location of the Tumor,ADRENAL GLAND,CRF
304,CDISCPILOT01,TR,01-701-1023,TRSEQ,52,TRLOC,Location of the Tumor,LYMPH NODE,CRF
305,CDISCPILOT01,TR,01-701-1023,TRSEQ,53,TRLOC,Location of the Tumor,LYMPH NODE,CRF
306,CDISCPILOT01,TR,01-701-1023,TRSEQ,54,TRLOC,Location of the Tumor,LYMPH NODE,CRF
307,CDISCPILOT01,TR,01-701-1023,TRSEQ,55,TRLOC,Location of the Tumor,BLADDER,CRF
308,CDISCPILOT01,TR,01-701-1023,TRSEQ,56,TRLOC,Location of the Tumor,BLADDER,CRF
309,CDISCPILOT01,TR,01-701-1023,TRSEQ,57,TRLOC,Location of the Tumor,BLADDER,CRF
310,CDISCPILOT01,TR,01-701-1023,TRSEQ,58,TRLOC,Location of the Tumor,BODY,CRF
311,CDISCPILOT01,TR,01-701-1023,TRSEQ,59,TRLOC,Location of the Tumor,BODY,CRF
312,CDISCPILOT01,TR,01-701-1023,TRSEQ,60,TRLOC,Location of the Tumor,BODY,CRF
313,CDISCPILOT01,TR,01-701-1023,TRSEQ,61,TRLOC,Location of the Tumor,,CRF
314,CDISCPILOT01,TR,01-701-1023,TRSEQ,62,TRLOC,Location of the Tumor,,CRF
315,CDISCPILOT01,TR,01-701-1023,TRSEQ,63,TRLOC,Location of the Tumor,,CRF
316,CDISCPILOT01,TR,01-701-1028,TRSEQ,1,TRLOC,Location of the Tumor,,CRF
317,CDISCPILOT01,TR,01-701-1028,TRSEQ,2,TRLOC,Location of the Tumor,,CRF
318,CDISCPILOT01,TR,01-701-1028,TRSEQ,3,TRLOC,Location of the Tumor,,CRF
319,CDISCPILOT01,TR,01-701-1028,TRSEQ,4,TRLOC,Location of the Tumor,,CRF
320,CDISCPILOT01,TR,01-701-1028,TRSEQ,5,TRLOC,Location of the Tumor,,CRF
321,CDISCPILOT01,TR,01-701-1028,TRSEQ,6,TRLOC,Location of the Tumor,,CRF
322,CDISCPILOT01,TR,01-701-1028,TRSEQ,7,TRLOC,Location of the Tumor,,CRF
323,CDISCPILOT01,TR,01-701-1028,TRSEQ,8,TRLOC,Location of the Tumor,,CRF
324,CDISCPILOT01,TR,01-701-1028,TRSEQ,9,TRLOC,Location of the Tumor,,CRF
325,CDISCPILOT01,TR,01-701-1028,TRSEQ,10,TRLOC,Location of the Tumor,,CRF
326,CDISCPILOT01,TR,01-701-1028,TRSEQ,11,TRLOC,Location of the Tumor,,CRF
327,CDISCPILOT01,TR,01-701-1028,TRSEQ,12,TRLOC,Location of the Tumor,,CRF
328,CDISCPILOT01,TR,01-701-1028,TRSEQ,13,TRLOC,Location of the Tumor,,CRF
329,CDISCPILOT01,TR,01-701-1028,TRSEQ,14,TRLOC,Location of the Tumor,,CRF
330,CDISCPILOT01,TR,01-701-1028,TRSEQ,15,TRLOC,Location of the Tumor,,CRF
331,CDISCPILOT01,TR,01-701-1028,TRSEQ,16,TRLOC,Location of the Tumor,ADRENAL GLAND,CRF
332,CDISCPILOT01,TR,01-701-1028,TRSEQ,17,TRLOC,Location of the Tumor,ADRENAL GLAND,CRF
333,CDISCPILOT01,TR,01-701-1028,TRSEQ,18,TRLOC,Location of the Tumor,ADRENAL GLAND,CRF
334,CDISCPILOT01,TR,01-701-1028,TRSEQ,19,TRLOC,Location of the Tumor,LYMPH NODE,CRF
335,CDISCPILOT01,TR,01-701-1028,TRSEQ,20,TRLOC,Location of the Tumor,LYMPH NODE,CRF
336,CDISCPILOT01,TR,01-701-1028,TRSEQ,21,TRLOC,Location of the Tumor,LYMPH NODE,CRF
337,CDISCPILOT01,TR,01-701-1028,TRSEQ,22,TRLOC,Location of the Tumor,BLADDER,CRF
338,CDISCPILOT01,TR,01-701-1028,TRSEQ,23,TRLOC,Location of the Tumor,BLADDER,CRF
339,CDISCPILOT01,TR,01-701-1028,TRSEQ,24,TRLOC,Location of the Tumor,BLADDER,CRF
340,CDISCPILOT01,TR,01-701-1028,TRSEQ,25,TRLOC,Location of the Tumor,BODY,CRF
341,CDISCPILOT01,TR,01-701-1028,TRSEQ,26,TRLOC,Location of the Tumor,BODY,CRF
342,CDISCPILOT01,TR,01-701-1028,TRSEQ,27,TRLOC,Location of the Tumor,BODY,CRF
343,CDISCPILOT01,TR,01-701-1028,TRSEQ,28,TRLOC,Location of the Tumor,BONE,CRF
344,CDISCPILOT01,TR,01-701-1028,TRSEQ,29,TRLOC,Location of the Tumor,BONE,CRF
345,CDISCPILOT01,TR,01-701-1028,TRSEQ,30,TRLOC,Location of the Tumor,BONE,CRF
346,CDISCPILOT01,TR,01-701-1028,TRSEQ,31,TRLOC,Location of the Tumor,BLADDER,CRF
347,CDISCPILOT01,TR,01-701-1028,TRSEQ,32,TRLOC,Location of the Tumor,BLADDER,CRF
348,CDISCPILOT01,TR,01-701-1028,TRSEQ,33,TRLOC,Location of the Tumor,BLADDER,CRF
349,CDISCPILOT01,TR,01-701-1028,TRSEQ,34,TRLOC,Location of the Tumor,BODY,CRF
350,CDISCPILOT01,TR,01-701-1028,TRSEQ,35,TRLOC,Location of the Tumor,BODY,CRF
351,CDISCPILOT01,TR,01-701-1028,TRSEQ,36,TRLOC,Location of the Tumor,BODY,CRF
352,CDISCPILOT01,TR,01-701-1028,TRSEQ,37,TRLOC,Location of the Tumor,BONE,CRF
353,CDISCPILOT01,TR,01-701-1028,TRSEQ,38,TRLOC,Location of the Tumor,BONE,CRF
354,CDISCPILOT01,TR,01-701-1028,TRSEQ,39,TRLOC,Location of the Tumor,BONE,CRF
355,CDISCPILOT01,TR,01-701-1028,TRSEQ,40,TRLOC,Location of the Tumor,BREAST,CRF
356,CDISCPILOT01,TR,01-701-1028,TRSEQ,41,TRLOC,Location of the Tumor,BREAST,CRF
357,CDISCPILOT01,TR,01-701-1028,TRSEQ,42,TRLOC,Location of the Tumor,BREAST,CRF
358,CDISCPILOT01,TR,01-701-1028,TRSEQ,43,TRLOC,Location of the Tumor,CHEST,CRF
359,CDISCPILOT01,TR,01-701-1028,TRSEQ,44,TRLOC,Location of the Tumor,CHEST,CRF
360,CDISCPILOT01,TR,01-701-1028,TRSEQ,45,TRLOC,Location of the Tumor,CHEST,CRF
361,CDISCPILOT01,TR,01-701-1028,TRSEQ,46,TRLOC,Location of the Tumor,BLADDER,CRF
362,CDISCPILOT01,TR,01-701-1028,TRSEQ,47,TRLOC,Location of the Tumor,BLADDER,CRF
363,CDISCPILOT01,TR,01-701-1028,TRSEQ,48,TRLOC,Location of the Tumor,BLADDER,CRF
364,CDISCPILOT01,TR,01-701-1028,TRSEQ,49,TRLOC,Location of the Tumor,BODY,CRF
365,CDISCPILOT01,TR,01-701-1028,TRSEQ,50,TRLOC,Location of the Tumor,BODY,CRF
366,CDISCPILOT01,TR,01-701-1028,TRSEQ,51,TRLOC,Location of the Tumor,BODY,CRF
367,CDISCPILOT01,TR,01-701-1028,TRSEQ,52,TRLOC,Location of the Tumor,BONE,CRF
368,CDISCPILOT01,TR,01-701-1028,TRSEQ,53,TRLOC,Location of the Tumor,BONE,CRF
369,CDISCPILOT01,TR,01-701-1028,TRSEQ,54,TRLOC,Location of the Tumor,BONE,CRF
370,CDISCPILOT01,TR,01-701-1028,TRSEQ,55,TRLOC,Location of the Tumor,BREAST,CRF
371,CDISCPILOT01,TR,01-701-1028,TRSEQ,56,TRLOC,Location of the Tumor,BREAST,CRF
372,CDISCPILOT01,TR,01-701-1028,TRSEQ,57,TRLOC,Location of the Tumor,BREAST,CRF
373,CDISCPILOT01,TR,01-701-1028,TRSEQ,58,TRLOC,Location of the Tumor,CHEST,CRF
374,CDISCPILOT01,TR,01-701-1028,TRSEQ,59,TRLOC,Location of the Tumor,CHEST,CRF
375,CDISCPILOT01,TR,01-701-1028,TRSEQ,60,TRLOC,Location of the Tumor,CHEST,CRF
376,CDISCPILOT01,TR,01-701-1028,TRSEQ,61,TRLOC,Location of the Tumor,,CRF
377,CDISCPILOT01,TR,01-701-1028,TRSEQ,62,TRLOC,Location of the Tumor,,CRF
378,CDISCPILOT01,TR,01-701-1028,TRSEQ,63,TRLOC,Location of the Tumor,,CRF
379,CDISCPILOT01,TR,01-701-1028,TRSEQ,64,TRLOC,Location of the Tumor,,CRF
380,CDISCPILOT01,TR,01-701-1028,TRSEQ,65,TRLOC,Location of the Tumor,,CRF
381,CDISCPILOT01,TR,01-701-1028,TRSEQ,66,TRLOC,Location of the Tumor,,CRF
382,CDISCPILOT01,TR,01-701-1028,TRSEQ,67,TRLOC,Location of the Tumor,,CRF
383,CDISCPILOT01,TR,01-701-1028,TRSEQ,68,TRLOC,Location of the Tumor,,CRF
384,CDISCPILOT01,TR,01-701-1028,TRSEQ,69,TRLOC,Location of the Tumor,,CRF
385,CDISCPILOT01,TR,01-701-1028,TRSEQ,70,TRLOC,Location of the Tumor,,CRF
386,CDISCPILOT01,TR,01-701-1028,TRSEQ,71,TRLOC,Location of the Tumor,,CRF
387,CDISCPILOT01,TR,01-701-1028,TRSEQ,72,TRLOC,Location of the Tumor,,CRF
388,CDISCPILOT01,TR,01-701-1028,TRSEQ,73,TRLOC,Location of the Tumor,,CRF
389,CDISCPILOT01,TR,01-701-1028,TRSEQ,74,TRLOC,Location of the Tumor,,CRF
390,CDISCPILOT01,TR,01-701-1028,TRSEQ,75,TRLOC,Location of the Tumor,,CRF
391,CDISCPILOT01,TR,01-701-1028,TRSEQ,76,TRLOC,Location of the Tumor,,CRF
392,CDISCPILOT01,TR,01-701-1028,TRSEQ,77,TRLOC,Location of the Tumor,,CRF
393,CDISCPILOT01,TR,01-701-1028,TRSEQ,78,TRLOC,Location of the Tumor,,CRF
394,CDISCPILOT01,TR,01-701-1028,TRSEQ,79,TRLOC,Location of the Tumor,ABDOMINAL CAVITY,CRF
395,CDISCPILOT01,TR,01-701-1028,TRSEQ,80,TRLOC,Location of the Tumor,ABDOMINAL CAVITY,CRF
396,CDISCPILOT01,TR,01-701-1028,TRSEQ,81,TRLOC,Location of the Tumor,ABDOMINAL CAVITY,CRF
397,CDISCPILOT01,TR,01-701-1028,TRSEQ,82,TRLOC,Location of the Tumor,ADRENAL GLAND,CRF
398,CDISCPILOT01,TR,01-701-1028,TRSEQ,83,TRLOC,Location of the Tumor,ADRENAL GLAND,CRF
399,CDISCPILOT01,TR,01-701-1028,TRSEQ,84,TRLOC,Location of the Tumor,ADRENAL GLAND,CRF
400,CDISCPILOT01,TR,01-701-1028,TRSEQ,85,TRLOC,Location of the Tumor,LYMPH NODE,CRF
401,CDISCPILOT01,TR,01-701-1028,TRSEQ,86,TRLOC,Location of the Tumor,LYMPH NODE,CRF
402,CDISCPILOT01,TR,01-701-1028,TRSEQ,87,TRLOC,Location of the Tumor,LYMPH NODE,CRF
403,CDISCPILOT01,TR,01-701-1028,TRSEQ,88,TRLOC,Location of the Tumor,BLADDER,CRF
404,CDISCPILOT01,TR,01-701-1028,TRSEQ,89,TRLOC,Location of the Tumor,BLADDER,CRF
405,CDISCPILOT01,TR,01-701-1028,TRSEQ,90,TRLOC,Location of the Tumor,BLADDER,CRF
406,CDISCPILOT01,TR,01-701-1028,TRSEQ,91,TRLOC,Location of the Tumor,BODY,CRF
407,CDISCPILOT01,TR,01-701-1028,TRSEQ,92,TRLOC,Location of the Tumor,BODY,CRF
408,CDISCPILOT01,TR,01-701-1028,TRSEQ,93,TRLOC,Location of the Tumor,BODY,CRF
409,CDISCPILOT01,TR,01-701-1028,TRSEQ,94,TRLOC,Location of the Tumor,LYMPH NODE,CRF
410,CDISCPILOT01,TR,01-701-1028,TRSEQ,95,TRLOC,Location of the Tumor,LYMPH NODE,CRF
411,CDISCPILOT01,TR,01-701-1028,TRSEQ,96,TRLOC,Location of the Tumor,LYMPH NODE,CRF
412,CDISCPILOT01,TR,01-701-1028,TRSEQ,97,TRLOC,Location of the Tumor,BLADDER,CRF
413,CDISCPILOT01,TR,01-701-1028,TRSEQ,98,TRLOC,Location of the Tumor,BLADDER,CRF
414,CDISCPILOT01,TR,01-701-1028,TRSEQ,99,TRLOC,Location of the Tumor,BLADDER,CRF
415,CDISCPILOT01,TR,01-701-1028,TRSEQ,100,TRLOC,Location of the Tumor,BODY,CRF
416,CDISCPILOT01,TR,01-701-1028,TRSEQ,101,TRLOC,Location of the Tumor,BODY,CRF
417,CDISCPILOT01,TR,01-701-1028,TRSEQ,102,TRLOC,Location of the Tumor,BODY,CRF
418,CDISCPILOT01,TR,01-701-1028,TRSEQ,103,TRLOC,Location of the Tumor,BONE,CRF
419,CDISCPILOT01,TR,01-701-1028,TRSEQ,104,TRLOC,Location of the Tumor,BONE,CRF
420,CDISCPILOT01,TR,01-701-1028,TRSEQ,105,TRLOC,Location of the Tumor,BONE,CRF
421,CDISCPILOT01,TR,01-701-1028,TRSEQ,106,TRLOC,Location of the Tumor,BREAST,CRF
422,CDISCPILOT01,TR,01-701-1028,TRSEQ,107,TRLOC,Location of the Tumor,BREAST,CRF
423,CDISCPILOT01,TR,01-701-1028,TRSEQ,108,TRLOC,Location of the Tumor,BREAST,CRF
424,CDISCPILOT01,TR,01-701-1028,TRSEQ,109,TRLOC,Location of the Tumor,BLADDER,CRF
425,CDISCPILOT01,TR,01-701-1028,TRSEQ,110,TRLOC,Location of the Tumor,BLADDER,CRF
426,CDISCPILOT01,TR,01-701-1028,TRSEQ,111,TRLOC,Location of the Tumor,BLADDER,CRF
427,CDISCPILOT01,TR,01-701-1028,TRSEQ,112,TRLOC,Location of the Tumor,BODY,CRF
428,CDISCPILOT01,TR,01-701-1028,TRSEQ,113,TRLOC,Location of the Tumor,BODY,CRF
429,CDISCPILOT01,TR,01-701-1028,TRSEQ,114,TRLOC,Location of the Tumor,BODY,CRF
430,CDISCPILOT01,TR,01-701-1028,TRSEQ,115,TRLOC,Location of the Tumor,BONE,CRF
431,CDISCPILOT01,TR,01-701-1028,TRSEQ,116,TRLOC,Location of the Tumor,BONE,CRF
432,CDISCPILOT01,TR,01-701-1028,TRSEQ,117,TRLOC,Location of the Tumor,BONE,CRF
433,CDISCPILOT01,TR,01-701-1028,TRSEQ,118,TRLOC,Location of the Tumor,BREAST,CRF
434,CDISCPILOT01,TR,01-701-1028,TRSEQ,119,TRLOC,Location of the Tumor,BREAST,CRF
435,CDISCPILOT01,TR,01-701-1028,TRSEQ,120,TRLOC,Location of the Tumor,BREAST,CRF
436,CDISCPILOT01,TR,01-701-1028,TRSEQ,121,TRLOC,Location of the Tumor,CHEST,CRF
437,CDISCPILOT01,TR,01-701-1028,TRSEQ,122,TRLOC,Location of the Tumor,CHEST,CRF
438,CDISCPILOT01,TR,01-701-1028,TRSEQ,123,TRLOC,Location of the Tumor,CHEST,CRF
439,CDISCPILOT01,TR,01-701-1028,TRSEQ,124,TRLOC,Location of the Tumor,,CRF
440,CDISCPILOT01,TR,01-701-1028,TRSEQ,125,TRLOC,Location of the Tumor,,CRF
441,CDISCPILOT01,TR,01-701-1028,TRSEQ,126,TRLOC,Location of the Tumor,,CRF
442,CDISCPILOT01,TR,01-701-1028,TRSEQ,127,TRLOC,Location of the Tumor,,CRF
443,CDISCPILOT01,TR,01-701-1028,TRSEQ,128,TRLOC,Location of the Tumor,,CRF
444,CDISCPILOT01,TR,01-701-1028,TRSEQ,129,TRLOC,Location of the Tumor,,CRF
445,CDISCPILOT01,TR,01-701-1028,TRSEQ,130,TRLOC,Location of the Tumor,,CRF
446,CDISCPILOT01,TR,01-701-1028,TRSEQ,131,TRLOC,Location of the Tumor,,CRF
447,CDISCPILOT01,TR,01-701-1028,TRSEQ,132,TRLOC,Location of the Tumor,,CRF
448,CDISCPILOT01,TR,01-701-1028,TRSEQ,133,TRLOC,Location of the Tumor,,CRF
449,CDISCPILOT01,TR,01-701-1028,TRSEQ,134,TRLOC,Location of the Tumor,,CRF
450,CDISCPILOT01,TR,01-701-1028,TRSEQ,135,TRLOC,Location of the Tumor,,CRF
451,CDISCPILOT01,TR,01-701-1028,TRSEQ,136,TRLOC,Location of the Tumor,,CRF
452,CDISCPILOT01,TR,01-701-1028,TRSEQ,137,TRLOC,Location of the Tumor,,CRF
453,CDISCPILOT01,TR,01-701-1028,TRSEQ,138,TRLOC,Location of the Tumor,,CRF
454,CDISCPILOT01,TR,01-701-1028,TRSEQ,139,TRLOC,Location of the Tumor,,CRF
455,CDISCPILOT01,TR,01-701-1028,TRSEQ,140,TRLOC,Location of the Tumor,,CRF
456,CDISCPILOT01,TR,01-701-1028,TRSEQ,141,TRLOC,Location of the Tumor,,CRF
457,CDISCPILOT01,TR,01-701-1028,TRSEQ,142,TRLOC,Location of the Tumor,ABDOMINAL CAVITY,CRF
458,CDISCPILOT01,TR,01-701-1028,TRSEQ,143,TRLOC,Location of the Tumor,ABDOMINAL CAVITY,CRF
459,CDISCPILOT01,TR,01-701-1028,TRSEQ,144,TRLOC,Location of the Tumor,ABDOMINAL CAVITY,CRF
460,CDISCPILOT01,TR,01-701-1028,TRSEQ,145,TRLOC,Location of the Tumor,ADRENAL GLAND,CRF
461,CDISCPILOT01,TR,01-701-1028,TRSEQ,146,TRLOC,Location of the Tumor,ADRENAL GLAND,CRF
462,CDISCPILOT01,TR,01-701-1028,TRSEQ,147,TRLOC,Location of the Tumor,ADRENAL GLAND,CRF
463,CDISCPILOT01,TR,01-701-1028,TRSEQ,148,TRLOC,Location of the Tumor,LYMPH NODE,CRF
464,CDISCPILOT01,TR,01-701-1028,TRSEQ,149,TRLOC,Location of the Tumor,LYMPH NODE,CRF
465,CDISCPILOT01,TR,01-701-1028,TRSEQ,150,TRLOC,Location of the Tumor,LYMPH NODE,CRF
466,CDISCPILOT01,TR,01-701-1028,TRSEQ,151,TRLOC,Location of the Tumor,BLADDER,CRF
467,CDISCPILOT01,TR,01-701-1028,TRSEQ,152,TRLOC,Location of the Tumor,BLADDER,CRF
468,CDISCPILOT01,TR,01-701-1028,TRSEQ,153,TRLOC,Location of the Tumor,BLADDER,CRF
469,CDISCPILOT01,TR,01-701-1028,TRSEQ,154,TRLOC,Location of the Tumor,BODY,CRF
470,CDISCPILOT01,TR,01-701-1028,TRSEQ,155,TRLOC,Location of the Tumor,BODY,CRF
471,CDISCPILOT01,TR,01-701-1028,TRSEQ,156,TRLOC,Location of the Tumor,BODY,CRF
472,CDISCPILOT01,TR,01-701-1028,TRSEQ,157,TRLOC,Location of the Tumor,ABDOMINAL CAVITY,CRF
473,CDISCPILOT01,TR,01-701-1028,TRSEQ,158,TRLOC,Location of the Tumor,ABDOMINAL CAVITY,CRF
474,CDISCPILOT01,TR,01-701-1028,TRSEQ,159,TRLOC,Location of the Tumor,ABDOMINAL CAVITY,CRF
475,CDISCPILOT01,TR,01-701-1028,TRSEQ,160,TRLOC,Location of the Tumor,ADRENAL GLAND,CRF
476,CDISCPILOT01,TR,01-701-1028,TRSEQ,161,TRLOC,Location of the Tumor,ADRENAL GLAND,CRF
477,CDISCPILOT01,TR,01-701-1028,TRSEQ,162,TRLOC,Location of the Tumor,ADRENAL GLAND,CRF
478,CDISCPILOT01,TR,01-701-1028,TRSEQ,163,TRLOC,Location of the Tumor,LYMPH NODE,CRF
479,CDISCPILOT01,TR,01-701-1028,TRSEQ,164,TRLOC,Location of the Tumor,LYMPH NODE,CRF
480,CDISCPILOT01,TR,01-701-1028,TRSEQ,165,TRLOC,Location of the Tumor,LYMPH NODE,CRF
481,CDISCPILOT01,TR,01-701-1028,TRSEQ,166,TRLOC,Location of the Tumor,BLADDER,CRF
482,CDISCPILOT01,TR,01-701-1028,TRSEQ,167,TRLOC,Location of the Tumor,BLADDER,CRF
483,CDISCPILOT01,TR,01-701-1028,TRSEQ,168,TRLOC,Location of the Tumor,BLADDER,CRF
484,CDISCPILOT01,TR,01-701-1028,TRSEQ,169,TRLOC,Location of the Tumor,BODY,CRF
485,CDISCPILOT01,TR,01-701-1028,TRSEQ,170,TRLOC,Location of the Tumor,BODY,CRF
486,CDISCPILOT01,TR,01-701-1028,TRSEQ,171,TRLOC,Location of the Tumor,BODY,CRF
487,CDISCPILOT01,TR,01-701-1028,TRSEQ,172,TRLOC,Location of the Tumor,LYMPH NODE,CRF
488,CDISCPILOT01,TR,01-701-1028,TRSEQ,173,TRLOC,Location of the Tumor,LYMPH NODE,CRF
489,CDISCPILOT01,TR,01-701-1028,TRSEQ,174,TRLOC,Location of the Tumor,LYMPH NODE,CRF
490,CDISCPILOT01,TR,01-701-1028,TRSEQ,175,TRLOC,Location of the Tumor,BLADDER,CRF
491,CDISCPILOT01,TR,01-701-1028,TRSEQ,176,TRLOC,Location of the Tumor,BLADDER,CRF
492,CDISCPILOT01,TR,01-701-1028,TRSEQ,177,TRLOC,Location of the Tumor,BLADDER,CRF
493,CDISCPILOT01,TR,01-701-1028,TRSEQ,178,TRLOC,Location of the Tumor,BODY,CRF
494,CDISCPILOT01,TR,01-701-1028,TRSEQ,179,TRLOC,Location of the Tumor,BODY,CRF
495,CDISCPILOT01,TR,01-701-1028,TRSEQ,180,TRLOC,Location of the Tumor,BODY,CRF
496,CDISCPILOT01,TR,01-701-1028,TRSEQ,181,TRLOC,Location of the Tumor,BONE,CRF
497,CDISCPILOT01,TR,01-701-1028,TRSEQ,182,TRLOC,Location of the Tumor,BONE,CRF
498,CDISCPILOT01,TR,01-701-1028,TRSEQ,183,TRLOC,Location of the Tumor,BONE,CRF
499,CDISCPILOT01,TR,01-701-1028,TRSEQ,184,TRLOC,Location of the Tumor,BREAST,CRF
500,CDISCPILOT01,TR,01-701-1028,TRSEQ,185,TRLOC,Location of the Tumor,BREAST,CRF
501,CDISCPILOT01,TR,01-701-1028,TRSEQ,186,TRLOC,Location of the Tumor,BREAST,CRF
502,CDISCPILOT01,TR,01-701-1028,TRSEQ,187,TRLOC,Location of the Tumor,,CRF
503,CDISCPILOT01,TR,01-701-1028,TRSEQ,188,TRLOC,Location of the Tumor,,CRF
504,CDISCPILOT01,TR,01-701-1028,TRSEQ,189,TRLOC,Location of the Tumor,,CRF
505,CDISCPILOT01,TR,01-701-1028,TRSEQ,190,TRLOC,Location of the Tumor,,CRF
506,CDISCPILOT01,TR,01-701-1028,TRSEQ,191,TRLOC,Location of the Tumor,,CRF
507,CDISCPILOT01,TR,01-701-1028,TRSEQ,192,TRLOC,Location of the Tumor,,CRF
508,CDISCPILOT01,TR,01-701-1028,TRSEQ,193,TRLOC,Location of the Tumor,,CRF
509,CDISCPILOT01,TR,01-701-1028,TRSEQ,194,TRLOC,Location of the Tumor,,CRF
510,CDISCPILOT01,TR,01-701-1028,TRSEQ,195,TRLOC,Location of the Tumor,,CRF
511,CDISCPILOT01,TR,01-701-1028,TRSEQ,196,TRLOC,Location of the Tumor,,CRF
512,CDISCPILOT01,TR,01-701-1028,TRSEQ,197,TRLOC,Location of the Tumor,,CRF
513,CDISCPILOT01,TR,01-701-1028,TRSEQ,198,TRLOC,Location of the Tumor,,CRF
514,CDISCPILOT01,TR,01-701-1028,TRSEQ,199,TRLOC,Location of the Tumor,,CRF
515,CDISCPILOT01,TR,01-701-1028,TRSEQ,200,TRLOC,Location of the Tumor,,CRF
516,CDISCPILOT01,TR,01-701-1028,TRSEQ,201,TRLOC,Location of the Tumor,,CRF
517,CDISCPILOT01,TR,01-701-1028,TRSEQ,202,TRLOC,Location of the Tumor,,CRF
518,CDISCPILOT01,TR,01-701-1028,TRSEQ,203,TRLOC,Location of the Tumor,,CRF
519,CDISCPILOT01,TR,01-701-1028,TRSEQ,204,TRLOC,Location of the Tumor,,CRF
520,CDISCPILOT01,TR,01-701-1028,TRSEQ,205,TRLOC,Location of the Tumor,ADRENAL GLAND,CRF
521,CDISCPILOT01,TR,01-701-1028,TRSEQ,206,TRLOC,Location of the Tumor,ADRENAL GLAND,CRF
522,CDISCPILOT01,TR,01-701-1028,TRSEQ,207,TRLOC,Location of the Tumor,ADRENAL GLAND,CRF
523,CDISCPILOT01,TR,01-701-1028,TRSEQ,208,TRLOC,Location of the Tumor,LYMPH NODE,CRF
524,CDISCPILOT01,TR,01-701-1028,TRSEQ,209,TRLOC,Location of the Tumor,LYMPH NODE,CRF
525,CDISCPILOT01,TR,01-701-1028,TRSEQ,210,TRLOC,Location of the Tumor,LYMPH NODE,CRF
526,CDISCPILOT01,TR,01-701-1028,TRSEQ,211,TRLOC,Location of the Tumor,BLADDER,CRF
527,CDISCPILOT01,TR,01-701-1028,TRSEQ,212,TRLOC,Location of the Tumor,BLADDER,CRF
528,CDISCPILOT01,TR,01-701-1028,TRSEQ,213,TRLOC,Location of the Tumor,BLADDER,CRF
529,CDISCPILOT01,TR,01-701-1028,TRSEQ,214,TRLOC,Location of the Tumor,BODY,CRF
530,CDISCPILOT01,TR,01-701-1028,TRSEQ,215,TRLOC,Location of the Tumor,BODY,CRF
531,CDISCPILOT01,TR,01-701-1028,TRSEQ,216,TRLOC,Location of the Tumor,BODY,CRF
532,CDISCPILOT01,TR,01-701-1028,TRSEQ,217,TRLOC,Location of the Tumor,BONE,CRF
533,CDISCPILOT01,TR,01-701-1028,TRSEQ,218,TRLOC,Location of the Tumor,BONE,CRF
534,CDISCPILOT01,TR,01-701-1028,TRSEQ,219,TRLOC,Location of the Tumor,BONE,CRF
535,CDISCPILOT01,TR,01-701-1028,TRSEQ,220,TRLOC,Location of the Tumor,ADRENAL GLAND,CRF
536,CDISCPILOT01,TR,01-701-1028,TRSEQ,221,TRLOC,Location of the Tumor,ADRENAL GLAND,CRF
537,CDISCPILOT01,TR,01-701-1028,TRSEQ,222,TRLOC,Location of the Tumor,ADRENAL GLAND,CRF
538,CDISCPILOT01,TR,01-701-1028,TRSEQ,223,TRLOC,Location of the Tumor,LYMPH NODE,CRF
539,CDISCPILOT01,TR,01-701-1028,TRSEQ,224,TRLOC,Location of the Tumor,LYMPH NODE,CRF
540,CDISCPILOT01,TR,01-701-1028,TRSEQ,225,TRLOC,Location of the Tumor,LYMPH NODE,CRF
541,CDISCPILOT01,TR,01-701-1028,TRSEQ,226,TRLOC,Location of the Tumor,BLADDER,CRF
542,CDISCPILOT01,TR,01-701-1028,TRSEQ,227,TRLOC,Location of the Tumor,BLADDER,CRF
543,CDISCPILOT01,TR,01-701-1028,TRSEQ,228,TRLOC,Location of the Tumor,BLADDER,CRF
544,CDISCPILOT01,TR,01-701-1028,TRSEQ,229,TRLOC,Location of the Tumor,BODY,CRF
545,CDISCPILOT01,TR,01-701-1028,TRSEQ,230,TRLOC,Location of the Tumor,BODY,CRF
546,CDISCPILOT01,TR,01-701-1028,TRSEQ,231,TRLOC,Location of the Tumor,BODY,CRF
547,CDISCPILOT01,TR,01-701-1028,TRSEQ,232,TRLOC,Location of the Tumor,BONE,CRF
548,CDISCPILOT01,TR,01-701-1028,TRSEQ,233,TRLOC,Location of the Tumor,BONE,CRF
549,CDISCPILOT01,TR,01-701-1028,TRSEQ,234,TRLOC,Location of the Tumor,BONE,CRF
550,CDISCPILOT01,TR,01-701-1028,TRSEQ,235,TRLOC,Location of the Tumor,LYMPH NODE,CRF
551,CDISCPILOT01,TR,01-701-1028,TRSEQ,236,TRLOC,Location of the Tumor,LYMPH NODE,CRF
552,CDISCPILOT01,TR,01-701-1028,TRSEQ,237,TRLOC,Location of the Tumor,LYMPH NODE,CRF
553,CDISCPILOT01,TR,01-701-1028,TRSEQ,238,TRLOC,Location of the Tumor,BLADDER,CRF
554,CDISCPILOT01,TR,01-701-1028,TRSEQ,239,TRLOC,Location of the Tumor,BLADDER,CRF
555,CDISCPILOT01,TR,01-701-1028,TRSEQ,240,TRLOC,Location of the Tumor,BLADDER,CRF
556,CDISCPILOT01,TR,01-701-1028,TRSEQ,241,TRLOC,Location of the Tumor,BODY,CRF
557,CDISCPILOT01,TR,01-701-1028,TRSEQ,242,TRLOC,Location of the Tumor,BODY,CRF
558,CDISCPILOT01,TR,01-701-1028,TRSEQ,243,TRLOC,Location of the Tumor,BODY,CRF
559,CDISCPILOT01,TR,01-701-1028,TRSEQ,244,TRLOC,Location of the Tumor,BONE,CRF
560,CDISCPILOT01,TR,01-701-1028,TRSEQ,245,TRLOC,Location of the Tumor,BONE,CRF
561,CDISCPILOT01,TR,01-701-1028,TRSEQ,246,TRLOC,Location of the Tumor,BONE,CRF
562,CDISCPILOT01,TR,01-701-1028,TRSEQ,247,TRLOC,Location of the Tumor,BREAST,CRF
563,CDISCPILOT01,TR,01-701-1028,TRSEQ,248,TRLOC,Location of the Tumor,BREAST,CRF
564,CDISCPILOT01,TR,01-701-1028,TRSEQ,249,TRLOC,Location of the Tumor,BREAST,CRF
565,CDISCPILOT01,TR,01-701-1028,TRSEQ,250,TRLOC,Location of the Tumor,,CRF
566,CDISCPILOT01,TR,01-701-1028,TRSEQ,251,TRLOC,Location of the Tumor,,CRF
567,CDISCPILOT01,TR,01-701-1028,TRSEQ,252,TRLOC,Location of the Tumor,,CRF
568,CDISCPILOT01,TR,01-701-1028,TRSEQ,253,TRLOC,Location of the Tumor,,CRF
569,CDISCPILOT01,TR,01-701-1028,TRSEQ,254,TRLOC,Location of the Tumor,,CRF
570,CDISCPILOT01,TR,01-701-1028,TRSEQ,255,TRLOC,Location of the Tumor,,CRF
571,CDISCPILOT01,TR,01-701-1028,TRSEQ,256,TRLOC,Location of the Tumor,,CRF
572,CDISCPILOT01,TR,01-701-1028,TRSEQ,257,TRLOC,Location of the Tumor,,CRF
573,CDISCPILOT01,TR,01-701-1028,TRSEQ,258,TRLOC,Location of the Tumor,,CRF
574,CDISCPILOT01,TR,01-701-1028,TRSEQ,259,TRLOC,Location of the Tumor,,CRF
575,CDISCPILOT01,TR,01-701-1028,TRSEQ,260,TRLOC,Location of the Tumor,,CRF
576,CDISCPILOT01,TR,01-701-1028,TRSEQ,261,TRLOC,Location of the Tumor,,CRF
577,CDISCPILOT01,TR,01-701-1028,TRSEQ,262,TRLOC,Location of the Tumor,,CRF
578,CDISCPILOT01,TR,01-701-1028,TRSEQ,263,TRLOC,Location of the Tumor,,CRF
579,CDISCPILOT01,TR,01-701-1028,TRSEQ,264,TRLOC,Location of the Tumor,,CRF
580,CDISCPILOT01,TR,01-701-1028,TRSEQ,265,TRLOC,Location of the Tumor,,CRF
581,CDISCPILOT01,TR,01-701-1028,TRSEQ,266,TRLOC,Location of the Tumor,,CRF
582,CDISCPILOT01,TR,01-701-1028,TRSEQ,267,TRLOC,Location of the Tumor,,CRF
583,CDISCPILOT01,TR,01-701-1028,TRSEQ,268,TRLOC,Location of the Tumor,,CRF
584,CDISCPILOT01,TR,01-701-1028,TRSEQ,269,TRLOC,Location of the Tumor,,CRF
585,CDISCPILOT01,TR,01-701-1028,TRSEQ,270,TRLOC,Location of the Tumor,,CRF
586,CDISCPILOT01,TR,01-701-1028,TRSEQ,271,TRLOC,Location of the Tumor,ADRENAL GLAND,CRF
587,CDISCPILOT01,TR,01-701-1028,TRSEQ,272,TRLOC,Location of the Tumor,ADRENAL GLAND,CRF
588,CDISCPILOT01,TR,01-701-1028,TRSEQ,273,TRLOC,Location of the Tumor,ADRENAL GLAND,CRF
589,CDISCPILOT01,TR,01-701-1028,TRSEQ,274,TRLOC,Location of the Tumor,LYMPH NODE,CRF
590,CDISCPILOT01,TR,01-701-1028,TRSEQ,275,TRLOC,Location of the Tumor,LYMPH NODE,CRF
591,CDISCPILOT01,TR,01-701-1028,TRSEQ,276,TRLOC,Location of the Tumor,LYMPH NODE,CRF
592,CDISCPILOT01,TR,01-701-1028,TRSEQ,277,TRLOC,Location of the Tumor,BLADDER,CRF
593,CDISCPILOT01,TR,01-701-1028,TRSEQ,278,TRLOC,Location of the Tumor,BLADDER,CRF
594,CDISCPILOT01,TR,01-701-1028,TRSEQ,279,TRLOC,Location of the Tumor,BLADDER,CRF
595,CDISCPILOT01,TR,01-701-1028,TRSEQ,280,TRLOC,Location of the Tumor,BODY,CRF
596,CDISCPILOT01,TR,01-701-1028,TRSEQ,281,TRLOC,Location of the Tumor,BODY,CRF
597,CDISCPILOT01,TR,01-701-1028,TRSEQ,282,TRLOC,Location of the Tumor,BODY,CRF
598,CDISCPILOT01,TR,01-701-1028,TRSEQ,283,TRLOC,Location of the Tumor,BONE,CRF
599,CDISCPILOT01,TR,01-701-1028,TRSEQ,284,TRLOC,Location of the Tumor,BONE,CRF
600,CDISCPILOT01,TR,01-701-1028,TRSEQ,285,TRLOC,Location of the Tumor,BONE,CRF
601,CDISCPILOT01,TR,01-701-1028,TRSEQ,286,TRLOC,Location of the Tumor,ABDOMINAL CAVITY,CRF
602,CDISCPILOT01,TR,01-701-1028,TRSEQ,287,TRLOC,Location of the Tumor,ABDOMINAL CAVITY,CRF
603,CDISCPILOT01,TR,01-701-1028,TRSEQ,288,TRLOC,Location of the Tumor,ABDOMINAL CAVITY,CRF
604,CDISCPILOT01,TR,01-701-1028,TRSEQ,289,TRLOC,Location of the Tumor,ADRENAL GLAND,CRF
605,CDISCPILOT01,TR,01-701-1028,TRSEQ,290,TRLOC,Location of the Tumor,ADRENAL GLAND,CRF
606,CDISCPILOT01,TR,01-701-1028,TRSEQ,291,TRLOC,Location of the Tumor,ADRENAL GLAND,CRF
607,CDISCPILOT01,TR,01-701-1028,TRSEQ,292,TRLOC,Location of the Tumor,LYMPH NODE,CRF
608,CDISCPILOT01,TR,01-701-1028,TRSEQ,293,TRLOC,Location of the Tumor,LYMPH NODE,CRF
609,CDISCPILOT01,TR,01-701-1028,TRSEQ,294,TRLOC,Location of the Tumor,LYMPH NODE,CRF
610,CDISCPILOT01,TR,01-701-1028,TRSEQ,295,TRLOC,Location of the Tumor,BLADDER,CRF
611,CDISCPILOT01,TR,01-701-1028,TRSEQ,296,TRLOC,Location of the Tumor,BLADDER,CRF
612,CDISCPILOT01,TR,01-701-1028,TRSEQ,297,TRLOC,Location of the Tumor,BLADDER,CRF
613,CDISCPILOT01,TR,01-701-1028,TRSEQ,298,TRLOC,Location of the Tumor,BODY,CRF
614,CDISCPILOT01,TR,01-701-1028,TRSEQ,299,TRLOC,Location of the Tumor,BODY,CRF
615,CDISCPILOT01,TR,01-701-1028,TRSEQ,300,TRLOC,Location of the Tumor,BODY,CRF
616,CDISCPILOT01,TR,01-701-1028,TRSEQ,301,TRLOC,Location of the Tumor,ABDOMINAL CAVITY,CRF
617,CDISCPILOT01,TR,01-701-1028,TRSEQ,302,TRLOC,Location of the Tumor,ABDOMINAL CAVITY,CRF
618,CDISCPILOT01,TR,01-701-1028,TRSEQ,303,TRLOC,Location of the Tumor,ABDOMINAL CAVITY,CRF
619,CDISCPILOT01,TR,01-701-1028,TRSEQ,304,TRLOC,Location of the Tumor,ADRENAL GLAND,CRF
620,CDISCPILOT01,TR,01-701-1028,TRSEQ,305,TRLOC,Location of the Tumor,ADRENAL GLAND,CRF
621,CDISCPILOT01,TR,01-701-1028,TRSEQ,306,TRLOC,Location of the Tumor,ADRENAL GLAND,CRF
622,CDISCPILOT01,TR,01-701-1028,TRSEQ,307,TRLOC,Location of the Tumor,LYMPH NODE,CRF
623,CDISCPILOT01,TR,01-701-1028,TRSEQ,308,TRLOC,Location of the Tumor,LYMPH NODE,CRF
624,CDISCPILOT01,TR,01-701-1028,TRSEQ,309,TRLOC,Location of the Tumor,LYMPH NODE,CRF
625,CDISCPILOT01,TR,01-701-1028,TRSEQ,310,TRLOC,Location of the Tumor,BLADDER,CRF
626,CDISCPILOT01,TR,01-701-1028,TRSEQ,311,TRLOC,Location of the Tumor,BLADDER,CRF
627,CDISCPILOT01,TR,01-701-1028,TRSEQ,312,TRLOC,Location of the Tumor,BLADDER,CRF
628,CDISCPILOT01,TR,01-701-1028,TRSEQ,313,TRLOC,Location of the Tumor,BODY,CRF
629,CDISCPILOT01,TR,01-701-1028,TRSEQ,314,TRLOC,Location of the Tumor,BODY,CRF
630,CDISCPILOT01,TR,01-701-1028,TRSEQ,315,TRLOC,Location of the Tumor,BODY,CRF
631,CDISCPILOT01,TR,01-701-1028,TRSEQ,316,TRLOC,Location of the Tumor,,CRF
632,CDISCPILOT01,TR,01-701-1028,TRSEQ,317,TRLOC,Location of the Tumor,,CRF
633,CDISCPILOT01,TR,01-701-1028,TRSEQ,318,TRLOC,Location of the Tumor,,CRF
634,CDISCPILOT01,TR,01-701-1033,TRSEQ,1,TRLOC,Location of the Tumor,,CRF
635,CDISCPILOT01,TR,01-701-1033,TRSEQ,2,TRLOC,Location of the Tumor,,CRF
636,CDISCPILOT01,TR,01-701-1033,TRSEQ,3,TRLOC,Location of the Tumor,,CRF
637,CDISCPILOT01,TR,01-701-1033,TRSEQ,4,TRLOC,Location of the Tumor,,CRF
638,CDISCPILOT01,TR,01-701-1033,TRSEQ,5,TRLOC,Location of the Tumor,,CRF
639,CDISCPILOT01,TR,01-701-1033,TRSEQ,6,TRLOC,Location of the Tumor,,CRF
640,CDISCPILOT01,TR,01-701-1033,TRSEQ,7,TRLOC,Location of the Tumor,,CRF
641,CDISCPILOT01,TR,01-701-1033,TRSEQ,8,TRLOC,Location of the Tumor,,CRF
642,CDISCPILOT01,TR,01-701-1033,TRSEQ,9,TRLOC,Location of the Tumor,,CRF
643,CDISCPILOT01,TR,01-701-1033,TRSEQ,10,TRLOC,Location of the Tumor,,CRF
644,CDISCPILOT01,TR,01-701-1033,TRSEQ,11,TRLOC,Location of the Tumor,,CRF
645,CDISCPILOT01,TR,01-701-1033,TRSEQ,12,TRLOC,Location of the Tumor,,CRF
646,CDISCPILOT01,TR,01-701-1033,TRSEQ,13,TRLOC,Location of the Tumor,,CRF
647,CDISCPILOT01,TR,01-701-1033,TRSEQ,14,TRLOC,Location of the Tumor,,CRF
648,CDISCPILOT01,TR,01-701-1033,TRSEQ,15,TRLOC,Location of the Tumor,,CRF
649,CDISCPILOT01,TR,01-701-1033,TRSEQ,16,TRLOC,Location of the Tumor,ABDOMINAL CAVITY,CRF
650,CDISCPILOT01,TR,01-701-1033,TRSEQ,17,TRLOC,Location of the Tumor,ABDOMINAL CAVITY,CRF
651,CDISCPILOT01,TR,01-701-1033,TRSEQ,18,TRLOC,Location of the Tumor,ABDOMINAL CAVITY,CRF
652,CDISCPILOT01,TR,01-701-1033,TRSEQ,19,TRLOC,Location of the Tumor,ADRENAL GLAND,CRF
653,CDISCPILOT01,TR,01-701-1033,TRSEQ,20,TRLOC,Location of the Tumor,ADRENAL GLAND,CRF
654,CDISCPILOT01,TR,01-701-1033,TRSEQ,21,TRLOC,Location of the Tumor,ADRENAL GLAND,CRF
655,CDISCPILOT01,TR,01-701-1033,TRSEQ,22,TRLOC,Location of the Tumor,LYMPH NODE,CRF
656,CDISCPILOT01,TR,01-701-1033,TRSEQ,23,TRLOC,Location of the Tumor,LYMPH NODE,CRF
657,CDISCPILOT01,TR,01-701-1033,TRSEQ,24,TRLOC,Location of the Tumor,LYMPH NODE,CRF
658,CDISCPILOT01,TR,01-701-1033,TRSEQ,25,TRLOC,Location of the Tumor,BLADDER,CRF
659,CDISCPILOT01,TR,01-701-1033,TRSEQ,26,TRLOC,Location of the Tumor,BLADDER,CRF
660,CDISCPILOT01,TR,01-701-1033,TRSEQ,27,TRLOC,Location of the Tumor,BLADDER,CRF
661,CDISCPILOT01,TR,01-701-1033,TRSEQ,28,TRLOC,Location of the Tumor,BODY,CRF
662,CDISCPILOT01,TR,01-701-1033,TRSEQ,29,TRLOC,Location of the Tumor,BODY,CRF
663,CDISCPILOT01,TR,01-701-1033,TRSEQ,30,TRLOC,Location of the Tumor,BODY,CRF
664,CDISCPILOT01,TR,01-701-1033,TRSEQ,31,TRLOC,Location of the Tumor,BLADDER,CRF
665,CDISCPILOT01,TR,01-701-1033,TRSEQ,32,TRLOC,Location of the Tumor,BLADDER,CRF
666,CDISCPILOT01,TR,01-701-1033,TRSEQ,33,TRLOC,Location of the Tumor,BLADDER,CRF
667,CDISCPILOT01,TR,01-701-1033,TRSEQ,34,TRLOC,Location of the Tumor,BODY,CRF
668,CDISCPILOT01,TR,01-701-1033,TRSEQ,35,TRLOC,Location of the Tumor,BODY,CRF
669,CDISCPILOT01,TR,01-701-1033,TRSEQ,36,TRLOC,Location of the Tumor,BODY,CRF
670,CDISCPILOT01,TR,01-701-1033,TRSEQ,37,TRLOC,Location of the Tumor,BONE,CRF
671,CDISCPILOT01,TR,01-701-1033,TRSEQ,38,TRLOC,Location of the Tumor,BONE,CRF
672,CDISCPILOT01,TR,01-701-1033,TRSEQ,39,TRLOC,Location of the Tumor,BONE,CRF
673,CDISCPILOT01,TR,01-701-1033,TRSEQ,40,TRLOC,Location of the Tumor,BREAST,CRF
674,CDISCPILOT01,TR,01-701-1033,TRSEQ,41,TRLOC,Location of the Tumor,BREAST,CRF
675,CDISCPILOT01,TR,01-701-1033,TRSEQ,42,TRLOC,Location of the Tumor,BREAST,CRF
676,CDISCPILOT01,TR,01-701-1033,TRSEQ,43,TRLOC,Location of the Tumor,CHEST,CRF
677,CDISCPILOT01,TR,01-701-1033,TRSEQ,44,TRLOC,Location of the Tumor,CHEST,CRF
678,CDISCPILOT01,TR,01-701-1033,TRSEQ,45,TRLOC,Location of the Tumor,CHEST,CRF
679,CDISCPILOT01,TR,01-701-1033,TRSEQ,46,TRLOC,Location of the Tumor,ABDOMINAL CAVITY,CRF
680,CDISCPILOT01,TR,01-701-1033,TRSEQ,47,TRLOC,Location of the Tumor,ABDOMINAL CAVITY,CRF
681,CDISCPILOT01,TR,01-701-1033,TRSEQ,48,TRLOC,Location of the Tumor,ABDOMINAL CAVITY,CRF
682,CDISCPILOT01,TR,01-701-1033,TRSEQ,49,TRLOC,Location of the Tumor,ADRENAL GLAND,CRF
683,CDISCPILOT01,TR,01-701-1033,TRSEQ,50,TRLOC,Location of the Tumor,ADRENAL GLAND,CRF
684,CDISCPILOT01,TR,01-701-1033,TRSEQ,51,TRLOC,Location of the Tumor,ADRENAL GLAND,CRF
685,CDISCPILOT01,TR,01-701-1033,TRSEQ,52,TRLOC,Location of the Tumor,LYMPH NODE,CRF
686,CDISCPILOT01,TR,01-701-1033,TRSEQ,53,TRLOC,Location of the Tumor,LYMPH NODE,CRF
687,CDISCPILOT01,TR,01-701-1033,TRSEQ,54,TRLOC,Location of the Tumor,LYMPH NODE,CRF
688,CDISCPILOT01,TR,01-701-1033,TRSEQ,55,TRLOC,Location of the Tumor,BLADDER,CRF
689,CDISCPILOT01,TR,01-701-1033,TRSEQ,56,TRLOC,Location of the Tumor,BLADDER,CRF
690,CDISCPILOT01,TR,01-701-1033,TRSEQ,57,TRLOC,Location of the Tumor,BLADDER,CRF
691,CDISCPILOT01,TR,01-701-1033,TRSEQ,58,TRLOC,Location of the Tumor,BODY,CRF
692,CDISCPILOT01,TR,01-701-1033,TRSEQ,59,TRLOC,Location of the Tumor,BODY,CRF
693,CDISCPILOT01,TR,01-701-1033,TRSEQ,60,TRLOC,Location of the Tumor,BODY,CRF
694,CDISCPILOT01,TR,01-701-1033,TRSEQ,61,TRLOC,Location of the Tumor,,CRF
695,CDISCPILOT01,TR,01-701-1033,TRSEQ,62,TRLOC,Location of the Tumor,,CRF
696,CDISCPILOT01,TR,01-701-1033,TRSEQ,63,TRLOC,Location of the Tumor,,CRF
697,CDISCPILOT01,TR,01-701-1034,TRSEQ,1,TRLOC,Location of the Tumor,,CRF
698,CDISCPILOT01,TR,01-701-1034,TRSEQ,2,TRLOC,Location of the Tumor,,CRF
699,CDISCPILOT01,TR,01-701-1034,TRSEQ,3,TRLOC,Location of the Tumor,,CRF
700,CDISCPILOT01,TR,01-701-1034,TRSEQ,4,TRLOC,Location of the Tumor,,CRF
701,CDISCPILOT01,TR,01-701-1034,TRSEQ,5,TRLOC,Location of the Tumor,,CRF
702,CDISCPILOT01,TR,01-701-1034,TRSEQ,6,TRLOC,Location of the Tumor,,CRF
703,CDISCPILOT01,TR,01-701-1034,TRSEQ,7,TRLOC,Location of the Tumor,,CRF
704,CDISCPILOT01,TR,01-701-1034,TRSEQ,8,TRLOC,Location of the Tumor,,CRF
705,CDISCPILOT01,TR,01-701-1034,TRSEQ,9,TRLOC,Location of the Tumor,,CRF
706,CDISCPILOT01,TR,01-701-1034,TRSEQ,10,TRLOC,Location of the Tumor,,CRF
707,CDISCPILOT01,TR,01-701-1034,TRSEQ,11,TRLOC,Location of the Tumor,,CRF
708,CDISCPILOT01,TR,01-701-1034,TRSEQ,12,TRLOC,Location of the Tumor,,CRF
709,CDISCPILOT01,TR,01-701-1034,TRSEQ,13,TRLOC,Location of the Tumor,,CRF
710,CDISCPILOT01,TR,01-701-1034,TRSEQ,14,TRLOC,Location of the Tumor,,CRF
711,CDISCPILOT01,TR,01-701-1034,TRSEQ,15,TRLOC,Location of the Tumor,,CRF
712,CDISCPILOT01,TR,01-701-1034,TRSEQ,16,TRLOC,Location of the Tumor,ADRENAL GLAND,CRF
713,CDISCPILOT01,TR,01-701-1034,TRSEQ,17,TRLOC,Location of the Tumor,ADRENAL GLAND,CRF
714,CDISCPILOT01,TR,01-701-1034,TRSEQ,18,TRLOC,Location of the Tumor,ADRENAL GLAND,CRF
715,CDISCPILOT01,TR,01-701-1034,TRSEQ,19,TRLOC,Location of the Tumor,LYMPH NODE,CRF
716,CDISCPILOT01,TR,01-701-1034,TRSEQ,20,TRLOC,Location of the Tumor,LYMPH NODE,CRF
717,CDISCPILOT01,TR,01-701-1034,TRSEQ,21,TRLOC,Location of the Tumor,LYMPH NODE,CRF
718,CDISCPILOT01,TR,01-701-1034,TRSEQ,22,TRLOC,Location of the Tumor,BLADDER,CRF
719,CDISCPILOT01,TR,01-701-1034,TRSEQ,23,TRLOC,Location of the Tumor,BLADDER,CRF
720,CDISCPILOT01,TR,01-701-1034,TRSEQ,24,TRLOC,Location of the Tumor,BLADDER,CRF
721,CDISCPILOT01,TR,01-701-1034,TRSEQ,25,TRLOC,Location of the Tumor,BODY,CRF
722,CDISCPILOT01,TR,01-701-1034,TRSEQ,26,TRLOC,Location of the Tumor,BODY,CRF
723,CDISCPILOT01,TR,01-701-1034,TRSEQ,27,TRLOC,Location of the Tumor,BODY,CRF
724,CDISCPILOT01,TR,01-701-1034,TRSEQ,28,TRLOC,Location of the Tumor,BONE,CRF
725,CDISCPILOT01,TR,01-701-1034,TRSEQ,29,TRLOC,Location of the Tumor,BONE,CRF
726,CDISCPILOT01,TR,01-701-1034,TRSEQ,30,TRLOC,Location of the Tumor,BONE,CRF
727,CDISCPILOT01,TR,01-701-1034,TRSEQ,31,TRLOC,Location of the Tumor,ADRENAL GLAND,CRF
728,CDISCPILOT01,TR,01-701-1034,TRSEQ,32,TRLOC,Location of the Tumor,ADRENAL GLAND,CRF
729,CDISCPILOT01,TR,01-701-1034,TRSEQ,33,TRLOC,Location of the Tumor,ADRENAL GLAND,CRF
730,CDISCPILOT01,TR,01-701-1034,TRSEQ,34,TRLOC,Location of the Tumor,LYMPH NODE,CRF
731,CDISCPILOT01,TR,01-701-1034,TRSEQ,35,TRLOC,Location of the Tumor,LYMPH NODE,CRF
732,CDISCPILOT01,TR,01-701-1034,TRSEQ,36,TRLOC,Location of the Tumor,LYMPH NODE,CRF
733,CDISCPILOT01,TR,01-701-1034,TRSEQ,37,TRLOC,Location of the Tumor,BLADDER,CRF
734,CDISCPILOT01,TR,01-701-1034,TRSEQ,38,TRLOC,Location of the Tumor,BLADDER,CRF
735,CDISCPILOT01,TR,01-701-1034,TRSEQ,39,TRLOC,Location of the Tumor,BLADDER,CRF
736,CDISCPILOT01,TR,01-701-1034,TRSEQ,40,TRLOC,Location of the Tumor,BODY,CRF
737,CDISCPILOT01,TR,01-701-1034,TRSEQ,41,TRLOC,Location of the Tumor,BODY,CRF
738,CDISCPILOT01,TR,01-701-1034,TRSEQ,42,TRLOC,Location of the Tumor,BODY,CRF
739,CDISCPILOT01,TR,01-701-1034,TRSEQ,43,TRLOC,Location of the Tumor,BONE,CRF
740,CDISCPILOT01,TR,01-701-1034,TRSEQ,44,TRLOC,Location of the Tumor,BONE,CRF
741,CDISCPILOT01,TR,01-701-1034,TRSEQ,45,TRLOC,Location of the Tumor,BONE,CRF
742,CDISCPILOT01,TR,01-701-1034,TRSEQ,46,TRLOC,Location of the Tumor,ABDOMINAL CAVITY,CRF
743,CDISCPILOT01,TR,01-701-1034,TRSEQ,47,TRLOC,Location of the Tumor,ABDOMINAL CAVITY,CRF
744,CDISCPILOT01,TR,01-701-1034,TRSEQ,48,TRLOC,Location of the Tumor,ABDOMINAL CAVITY,CRF
745,CDISCPILOT01,TR,01-701-1034,TRSEQ,49,TRLOC,Location of the Tumor,ADRENAL GLAND,CRF
746,CDISCPILOT01,TR,01-701-1034,TRSEQ,50,TRLOC,Location of the Tumor,ADRENAL GLAND,CRF
747,CDISCPILOT01,TR,01-701-1034,TRSEQ,51,TRLOC,Location of the Tumor,ADRENAL GLAND,CRF
748,CDISCPILOT01,TR,01-701-1034,TRSEQ,52,TRLOC,Location of the Tumor,LYMPH NODE,CRF
749,CDISCPILOT01,TR,01-701-1034,TRSEQ,53,TRLOC,Location of the Tumor,LYMPH NODE,CRF
750,CDISCPILOT01,TR,01-701-1034,TRSEQ,54,TRLOC,Location of the Tumor,LYMPH NODE,CRF
751,CDISCPILOT01,TR,01-701-1034,TRSEQ,55,TRLOC,Location of the Tumor,BLADDER,CRF
752,CDISCPILOT01,TR,01-701-1034,TRSEQ,56,TRLOC,Location of the Tumor,BLADDER,CRF
753,CDISCPILOT01,TR,01-701-1034,TRSEQ,57,TRLOC,Location of the Tumor,BLADDER,CRF
754,CDISCPILOT01,TR,01-701-1034,TRSEQ,58,TRLOC,Location of the Tumor,BODY,CRF
755,CDISCPILOT01,TR,01-701-1034,TRSEQ,59,TRLOC,Location of the Tumor,BODY,CRF
756,CDISCPILOT01,TR,01-701-1034,TRSEQ,60,TRLOC,Location of the Tumor,BODY,CRF
757,CDISCPILOT01,TR,01-701-1034,TRSEQ,61,TRLOC,Location of the Tumor,,CRF
758,CDISCPILOT01,TR,01-701-1034,TRSEQ,62,TRLOC,Location of the Tumor,,CRF
759,CDISCPILOT01,TR,01-701-1034,TRSEQ,63,TRLOC,Location of the Tumor,,CRF
760,CDISCPILOT01,TR,01-701-1034,TRSEQ,64,TRLOC,Location of the Tumor,,CRF
761,CDISCPILOT01,TR,01-701-1034,TRSEQ,65,TRLOC,Location of the Tumor,,CRF
762,CDISCPILOT01,TR,01-701-1034,TRSEQ,66,TRLOC,Location of the Tumor,,CRF
763,CDISCPILOT01,TR,01-701-1034,TRSEQ,67,TRLOC,Location of the Tumor,,CRF
764,CDISCPILOT01,TR,01-701-1034,TRSEQ,68,TRLOC,Location of the Tumor,,CRF
765,CDISCPILOT01,TR,01-701-1034,TRSEQ,69,TRLOC,Location of the Tumor,,CRF
766,CDISCPILOT01,TR,01-701-1034,TRSEQ,70,TRLOC,Location of the Tumor,,CRF
767,CDISCPILOT01,TR,01-701-1034,TRSEQ,71,TRLOC,Location of the Tumor,,CRF
768,CDISCPILOT01,TR,01-701-1034,TRSEQ,72,TRLOC,Location of the Tumor,,CRF
769,CDISCPILOT01,TR,01-701-1034,TRSEQ,73,TRLOC,Location of the Tumor,,CRF
770,CDISCPILOT01,TR,01-701-1034,TRSEQ,74,TRLOC,Location of the Tumor,,CRF
771,CDISCPILOT01,TR,01-701-1034,TRSEQ,75,TRLOC,Location of the Tumor,,CRF
772,CDISCPILOT01,TR,01-701-1034,TRSEQ,76,TRLOC,Location of the Tumor,,CRF
773,CDISCPILOT01,TR,01-701-1034,TRSEQ,77,TRLOC,Location of the Tumor,,CRF
774,CDISCPILOT01,TR,01-701-1034,TRSEQ,78,TRLOC,Location of the Tumor,,CRF
775,CDISCPILOT01,TR,01-701-1034,TRSEQ,79,TRLOC,Location of the Tumor,LYMPH NODE,CRF
776,CDISCPILOT01,TR,01-701-1034,TRSEQ,80,TRLOC,Location of the Tumor,LYMPH NODE,CRF
777,CDISCPILOT01,TR,01-701-1034,TRSEQ,81,TRLOC,Location of the Tumor,LYMPH NODE,CRF
778,CDISCPILOT01,TR,01-701-1034,TRSEQ,82,TRLOC,Location of the Tumor,BLADDER,CRF
779,CDISCPILOT01,TR,01-701-1034,TRSEQ,83,TRLOC,Location of the Tumor,BLADDER,CRF
780,CDISCPILOT01,TR,01-701-1034,TRSEQ,84,TRLOC,Location of the Tumor,BLADDER,CRF
781,CDISCPILOT01,TR,01-701-1034,TRSEQ,85,TRLOC,Location of the Tumor,BODY,CRF
782,CDISCPILOT01,TR,01-701-1034,TRSEQ,86,TRLOC,Location of the Tumor,BODY,CRF
783,CDISCPILOT01,TR,01-701-1034,TRSEQ,87,TRLOC,Location of the Tumor,BODY,CRF
784,CDISCPILOT01,TR,01-701-1034,TRSEQ,88,TRLOC,Location of the Tumor,BONE,CRF
785,CDISCPILOT01,TR,01-701-1034,TRSEQ,89,TRLOC,Location of the Tumor,BONE,CRF
786,CDISCPILOT01,TR,01-701-1034,TRSEQ,90,TRLOC,Location of the Tumor,BONE,CRF
787,CDISCPILOT01,TR,01-701-1034,TRSEQ,91,TRLOC,Location of the Tumor,BREAST,CRF
788,CDISCPILOT01,TR,01-701-1034,TRSEQ,92,TRLOC,Location of the Tumor,BREAST,CRF
789,CDISCPILOT01,TR,01-701-1034,TRSEQ,93,TRLOC,Location of the Tumor,BREAST,CRF
790,CDISCPILOT01,TR,01-701-1034,TRSEQ,94,TRLOC,Location of the Tumor,ADRENAL GLAND,CRF
791,CDISCPILOT01,TR,01-701-1034,TRSEQ,95,TRLOC,Location of the Tumor,ADRENAL GLAND,CRF
792,CDISCPILOT01,TR,01-701-1034,TRSEQ,96,TRLOC,Location of the Tumor,ADRENAL GLAND,CRF
793,CDISCPILOT01,TR,01-701-1034,TRSEQ,97,TRLOC,Location of the Tumor,LYMPH NODE,CRF
794,CDISCPILOT01,TR,01-701-1034,TRSEQ,98,TRLOC,Location of the Tumor,LYMPH NODE,CRF
795,CDISCPILOT01,TR,01-701-1034,TRSEQ,99,TRLOC,Location of the Tumor,LYMPH NODE,CRF
796,CDISCPILOT01,TR,01-701-1034,TRSEQ,100,TRLOC,Location of the Tumor,BLADDER,CRF
797,CDISCPILOT01,TR,01-701-1034,TRSEQ,101,TRLOC,Location of the Tumor,BLADDER,CRF
798,CDISCPILOT01,TR,01-701-1034,TRSEQ,102,TRLOC,Location of the Tumor,BLADDER,CRF
799,CDISCPILOT01,TR,01-701-1034,TRSEQ,103,TRLOC,Location of the Tumor,BODY,CRF
800,CDISCPILOT01,TR,01-701-1034,TRSEQ,104,TRLOC,Location of the Tumor,BODY,CRF
801,CDISCPILOT01,TR,01-701-1034,TRSEQ,105,TRLOC,Location of the Tumor,BODY,CRF
802,CDISCPILOT01,TR,01-701-1034,TRSEQ,106,TRLOC,Location of the Tumor,BONE,CRF
803,CDISCPILOT01,TR,01-701-1034,TRSEQ,107,TRLOC,Location of the Tumor,BONE,CRF
804,CDISCPILOT01,TR,01-701-1034,TRSEQ,108,TRLOC,Location of the Tumor,BONE,CRF
805,CDISCPILOT01,TR,01-701-1034,TRSEQ,109,TRLOC,Location of the Tumor,LYMPH NODE,CRF
806,CDISCPILOT01,TR,01-701-1034,TRSEQ,110,TRLOC,Location of the Tumor,LYMPH NODE,CRF
807,CDISCPILOT01,TR,01-701-1034,TRSEQ,111,TRLOC,Location of the Tumor,LYMPH NODE,CRF
808,CDISCPILOT01,TR,01-701-1034,TRSEQ,112,TRLOC,Location of the Tumor,BLADDER,CRF
809,CDISCPILOT01,TR,01-701-1034,TRSEQ,113,TRLOC,Location of the Tumor,BLADDER,CRF
810,CDISCPILOT01,TR,01-701-1034,TRSEQ,114,TRLOC,Location of the Tumor,BLADDER,CRF
811,CDISCPILOT01,TR,01-701-1034,TRSEQ,115,TRLOC,Location of the Tumor,BODY,CRF
812,CDISCPILOT01,TR,01-701-1034,TRSEQ,116,TRLOC,Location of the Tumor,BODY,CRF
813,CDISCPILOT01,TR,01-701-1034,TRSEQ,117,TRLOC,Location of the Tumor,BODY,CRF
814,CDISCPILOT01,TR,01-701-1034,TRSEQ,118,TRLOC,Location of the Tumor,BONE,CRF
815,CDISCPILOT01,TR,01-701-1034,TRSEQ,119,TRLOC,Location of the Tumor,BONE,CRF
816,CDISCPILOT01,TR,01-701-1034,TRSEQ,120,TRLOC,Location of the Tumor,BONE,CRF
817,CDISCPILOT01,TR,01-701-1034,TRSEQ,121,TRLOC,Location of the Tumor,BREAST,CRF
818,CDISCPILOT01,TR,01-701-1034,TRSEQ,122,TRLOC,Location of the Tumor,BREAST,CRF
819,CDISCPILOT01,TR,01-701-1034,TRSEQ,123,TRLOC,Location of the Tumor,BREAST,CRF
820,CDISCPILOT01,TR,01-701-1034,TRSEQ,124,TRLOC,Location of the Tumor,,CRF
821,CDISCPILOT01,TR,01-701-1034,TRSEQ,125,TRLOC,Location of the Tumor,,CRF
822,CDISCPILOT01,TR,01-701-1034,TRSEQ,126,TRLOC,Location of the Tumor,,CRF
823,CDISCPILOT01,TR,01-701-1034,TRSEQ,127,TRLOC,Location of the Tumor,,CRF
824,CDISCPILOT01,TR,01-701-1034,TRSEQ,128,TRLOC,Location of the Tumor,,CRF
825,CDISCPILOT01,TR,01-701-1034,TRSEQ,129,TRLOC,Location of the Tumor,,CRF
826,CDISCPILOT01,TR,01-701-1034,TRSEQ,130,TRLOC,Location of the Tumor,,CRF
827,CDISCPILOT01,TR,01-701-1034,TRSEQ,131,TRLOC,Location of the Tumor,,CRF
828,CDISCPILOT01,TR,01-701-1034,TRSEQ,132,TRLOC,Location of the Tumor,,CRF
829,CDISCPILOT01,TR,01-701-1034,TRSEQ,133,TRLOC,Location of the Tumor,,CRF
830,CDISCPILOT01,TR,01-701-1034,TRSEQ,134,TRLOC,Location of the Tumor,,CRF
831,CDISCPILOT01,TR,01-701-1034,TRSEQ,135,TRLOC,Location of the Tumor,,CRF
832,CDISCPILOT01,TR,01-701-1034,TRSEQ,136,TRLOC,Location of the Tumor,,CRF
833,CDISCPILOT01,TR,01-701-1034,TRSEQ,137,TRLOC,Location of the Tumor,,CRF
834,CDISCPILOT01,TR,01-701-1034,TRSEQ,138,TRLOC,Location of the Tumor,,CRF
835,CDISCPILOT01,TR,01-701-1034,TRSEQ,139,TRLOC,Location of the Tumor,,CRF
836,CDISCPILOT01,TR,01-701-1034,TRSEQ,140,TRLOC,Location of the Tumor,,CRF
837,CDISCPILOT01,TR,01-701-1034,TRSEQ,141,TRLOC,Location of the Tumor,,CRF
838,CDISCPILOT01,TR,01-701-1034,TRSEQ,142,TRLOC,Location of the Tumor,LYMPH NODE,CRF
839,CDISCPILOT01,TR,01-701-1034,TRSEQ,143,TRLOC,Location of the Tumor,LYMPH NODE,CRF
840,CDISCPILOT01,TR,01-701-1034,TRSEQ,144,TRLOC,Location of the Tumor,LYMPH NODE,CRF
841,CDISCPILOT01,TR,01-701-1034,TRSEQ,145,TRLOC,Location of the Tumor,BLADDER,CRF
842,CDISCPILOT01,TR,01-701-1034,TRSEQ,146,TRLOC,Location of the Tumor,BLADDER,CRF
843,CDISCPILOT01,TR,01-701-1034,TRSEQ,147,TRLOC,Location of the Tumor,BLADDER,CRF
844,CDISCPILOT01,TR,01-701-1034,TRSEQ,148,TRLOC,Location of the Tumor,BODY,CRF
845,CDISCPILOT01,TR,01-701-1034,TRSEQ,149,TRLOC,Location of the Tumor,BODY,CRF
846,CDISCPILOT01,TR,01-701-1034,TRSEQ,150,TRLOC,Location of the Tumor,BODY,CRF
847,CDISCPILOT01,TR,01-701-1034,TRSEQ,151,TRLOC,Location of the Tumor,BONE,CRF
848,CDISCPILOT01,TR,01-701-1034,TRSEQ,152,TRLOC,Location of the Tumor,BONE,CRF
849,CDISCPILOT01,TR,01-701-1034,TRSEQ,153,TRLOC,Location of the Tumor,BONE,CRF
850,CDISCPILOT01,TR,01-701-1034,TRSEQ,154,TRLOC,Location of the Tumor,BREAST,CRF
851,CDISCPILOT01,TR,01-701-1034,TRSEQ,155,TRLOC,Location of the Tumor,BREAST,CRF
852,CDISCPILOT01,TR,01-701-1034,TRSEQ,156,TRLOC,Location of the Tumor,BREAST,CRF
853,CDISCPILOT01,TR,01-701-1034,TRSEQ,157,TRLOC,Location of the Tumor,ABDOMINAL CAVITY,CRF
854,CDISCPILOT01,TR,01-701-1034,TRSEQ,158,TRLOC,Location of the Tumor,ABDOMINAL CAVITY,CRF
855,CDISCPILOT01,TR,01-701-1034,TRSEQ,159,TRLOC,Location of the Tumor,ABDOMINAL CAVITY,CRF
856,CDISCPILOT01,TR,01-701-1034,TRSEQ,160,TRLOC,Location of the Tumor,ADRENAL GLAND,CRF
857,CDISCPILOT01,TR,01-701-1034,TRSEQ,161,TRLOC,Location of the Tumor,ADRENAL GLAND,CRF
858,CDISCPILOT01,TR,01-701-1034,TRSEQ,162,TRLOC,Location of the Tumor,ADRENAL GLAND,CRF
859,CDISCPILOT01,TR,01-701-1034,TRSEQ,163,TRLOC,Location of the Tumor,LYMPH NODE,CRF
860,CDISCPILOT01,TR,01-701-1034,TRSEQ,164,TRLOC,Location of the Tumor,LYMPH NODE,CRF
861,CDISCPILOT01,TR,01-701-1034,TRSEQ,165,TRLOC,Location of the Tumor,LYMPH NODE,CRF
862,CDISCPILOT01,TR,01-701-1034,TRSEQ,166,TRLOC,Location of the Tumor,BLADDER,CRF
863,CDISCPILOT01,TR,01-701-1034,TRSEQ,167,TRLOC,Location of the Tumor,BLADDER,CRF
864,CDISCPILOT01,TR,01-701-1034,TRSEQ,168,TRLOC,Location of the Tumor,BLADDER,CRF
865,CDISCPILOT01,TR,01-701-1034,TRSEQ,169,TRLOC,Location of the Tumor,BODY,CRF
866,CDISCPILOT01,TR,01-701-1034,TRSEQ,170,TRLOC,Location of the Tumor,BODY,CRF
867,CDISCPILOT01,TR,01-701-1034,TRSEQ,171,TRLOC,Location of the Tumor,BODY,CRF
868,CDISCPILOT01,TR,01-701-1034,TRSEQ,172,TRLOC,Location of the Tumor,ADRENAL GLAND,CRF
869,CDISCPILOT01,TR,01-701-1034,TRSEQ,173,TRLOC,Location of the Tumor,ADRENAL GLAND,CRF
870,CDISCPILOT01,TR,01-701-1034,TRSEQ,174,TRLOC,Location of the Tumor,ADRENAL GLAND,CRF
871,CDISCPILOT01,TR,01-701-1034,TRSEQ,175,TRLOC,Location of the Tumor,LYMPH NODE,CRF
872,CDISCPILOT01,TR,01-701-1034,TRSEQ,176,TRLOC,Location of the Tumor,LYMPH NODE,CRF
873,CDISCPILOT01,TR,01-701-1034,TRSEQ,177,TRLOC,Location of the Tumor,LYMPH NODE,CRF
874,CDISCPILOT01,TR,01-701-1034,TRSEQ,178,TRLOC,Location of the Tumor,BLADDER,CRF
875,CDISCPILOT01,TR,01-701-1034,TRSEQ,179,TRLOC,Location of the Tumor,BLADDER,CRF
876,CDISCPILOT01,TR,01-701-1034,TRSEQ,180,TRLOC,Location of the Tumor,BLADDER,CRF
877,CDISCPILOT01,TR,01-701-1034,TRSEQ,181,TRLOC,Location of the Tumor,BODY,CRF
878,CDISCPILOT01,TR,01-701-1034,TRSEQ,182,TRLOC,Location of the Tumor,BODY,CRF
879,CDISCPILOT01,TR,01-701-1034,TRSEQ,183,TRLOC,Location of the Tumor,BODY,CRF
880,CDISCPILOT01,TR,01-701-1034,TRSEQ,184,TRLOC,Location of the Tumor,BONE,CRF
881,CDISCPILOT01,TR,01-701-1034,TRSEQ,185,TRLOC,Location of the Tumor,BONE,CRF
882,CDISCPILOT01,TR,01-701-1034,TRSEQ,186,TRLOC,Location of the Tumor,BONE,CRF
883,CDISCPILOT01,TR,01-701-1034,TRSEQ,187,TRLOC,Location of the Tumor,,CRF
884,CDISCPILOT01,TR,01-701-1034,TRSEQ,188,TRLOC,Location of the Tumor,,CRF
885,CDISCPILOT01,TR,01-701-1034,TRSEQ,189,TRLOC,Location of the Tumor,,CRF
886,CDISCPILOT01,TR,01-701-1034,TRSEQ,190,TRLOC,Location of the Tumor,,CRF
887,CDISCPILOT01,TR,01-701-1034,TRSEQ,191,TRLOC,Location of the Tumor,,CRF
888,CDISCPILOT01,TR,01-701-1034,TRSEQ,192,TRLOC,Location of the Tumor,,CRF
889,CDISCPILOT01,TR,01-701-1034,TRSEQ,193,TRLOC,Location of the Tumor,,CRF
890,CDISCPILOT01,TR,01-701-1034,TRSEQ,194,TRLOC,Location of the Tumor,,CRF
891,CDISCPILOT01,TR,01-701-1034,TRSEQ,195,TRLOC,Location of the Tumor,,CRF
892,CDISCPILOT01,TR,01-701-1034,TRSEQ,196,TRLOC,Location of the Tumor,,CRF
893,CDISCPILOT01,TR,01-701-1034,TRSEQ,197,TRLOC,Location of the Tumor,,CRF
894,CDISCPILOT01,TR,01-701-1034,TRSEQ,198,TRLOC,Location of the Tumor,,CRF
895,CDISCPILOT01,TR,01-701-1034,TRSEQ,199,TRLOC,Location of the Tumor,,CRF
896,CDISCPILOT01,TR,01-701-1034,TRSEQ,200,TRLOC,Location of the Tumor,,CRF
897,CDISCPILOT01,TR,01-701-1034,TRSEQ,201,TRLOC,Location of the Tumor,,CRF
898,CDISCPILOT01,TR,01-701-1034,TRSEQ,202,TRLOC,Location of the Tumor,,CRF
899,CDISCPILOT01,TR,01-701-1034,TRSEQ,203,TRLOC,Location of the Tumor,,CRF
900,CDISCPILOT01,TR,01-701-1034,TRSEQ,204,TRLOC,Location of the Tumor,,CRF
901,CDISCPILOT01,TR,01-701-1034,TRSEQ,205,TRLOC,Location of the Tumor,LYMPH NODE,CRF
902,CDISCPILOT01,TR,01-701-1034,TRSEQ,206,TRLOC,Location of the Tumor,LYMPH NODE,CRF
903,CDISCPILOT01,TR,01-701-1034,TRSEQ,207,TRLOC,Location of the Tumor,LYMPH NODE,CRF
904,CDISCPILOT01,TR,01-701-1034,TRSEQ,208,TRLOC,Location of the Tumor,BLADDER,CRF
905,CDISCPILOT01,TR,01-701-1034,TRSEQ,209,TRLOC,Location of the Tumor,BLADDER,CRF
906,CDISCPILOT01,TR,01-701-1034,TRSEQ,210,TRLOC,Location of the Tumor,BLADDER,CRF
907,CDISCPILOT01,TR,01-701-1034,TRSEQ,211,TRLOC,Location of the Tumor,BODY,CRF
908,CDISCPILOT01,TR,01-701-1034,TRSEQ,212,TRLOC,Location of the Tumor,BODY,CRF
909,CDISCPILOT01,TR,01-701-1034,TRSEQ,213,TRLOC,Location of the Tumor,BODY,CRF
910,CDISCPILOT01,TR,01-701-1034,TRSEQ,214,TRLOC,Location of the Tumor,BONE,CRF
911,CDISCPILOT01,TR,01-701-1034,TRSEQ,215,TRLOC,Location of the Tumor,BONE,CRF
912,CDISCPILOT01,TR,01-701-1034,TRSEQ,216,TRLOC,Location of the Tumor,BONE,CRF
913,CDISCPILOT01,TR,01-701-1034,TRSEQ,217,TRLOC,Location of the Tumor,BREAST,CRF
914,CDISCPILOT01,TR,01-701-1034,TRSEQ,218,TRLOC,Location of the Tumor,BREAST,CRF
915,CDISCPILOT01,TR,01-701-1034,TRSEQ,219,TRLOC,Location of the Tumor,BREAST,CRF
916,CDISCPILOT01,TR,01-701-1034,TRSEQ,220,TRLOC,Location of the Tumor,BLADDER,CRF
917,CDISCPILOT01,TR,01-701-1034,TRSEQ,221,TRLOC,Location of the Tumor,BLADDER,CRF
918,CDISCPILOT01,TR,01-701-1034,TRSEQ,222,TRLOC,Location of the Tumor,BLADDER,CRF
919,CDISCPILOT01,TR,01-701-1034,TRSEQ,223,TRLOC,Location of the Tumor,BODY,CRF
920,CDISCPILOT01,TR,01-701-1034,TRSEQ,224,TRLOC,Location of the Tumor,BODY,CRF
921,CDISCPILOT01,TR,01-701-1034,TRSEQ,225,TRLOC,Location of the Tumor,BODY,CRF
922,CDISCPILOT01,TR,01-701-1034,TRSEQ,226,TRLOC,Location of the Tumor,BONE,CRF
923,CDISCPILOT01,TR,01-701-1034,TRSEQ,227,TRLOC,Location of the Tumor,BONE,CRF
924,CDISCPILOT01,TR,01-701-1034,TRSEQ,228,TRLOC,Location of the Tumor,BONE,CRF
925,CDISCPILOT01,TR,01-701-1034,TRSEQ,229,TRLOC,Location of the Tumor,BREAST,CRF
926,CDISCPILOT01,TR,01-701-1034,TRSEQ,230,TRLOC,Location of the Tumor,BREAST,CRF
927,CDISCPILOT01,TR,01-701-1034,TRSEQ,231,TRLOC,Location of the Tumor,BREAST,CRF
928,CDISCPILOT01,TR,01-701-1034,TRSEQ,232,TRLOC,Location of the Tumor,CHEST,CRF
929,CDISCPILOT01,TR,01-701-1034,TRSEQ,233,TRLOC,Location of the Tumor,CHEST,CRF
930,CDISCPILOT01,TR,01-701-1034,TRSEQ,234,TRLOC,Location of the Tumor,CHEST,CRF
931,CDISCPILOT01,TR,01-701-1034,TRSEQ,235,TRLOC,Location of the Tumor,BLADDER,CRF
932,CDISCPILOT01,TR,01-701-1034,TRSEQ,236,TRLOC,Location of the Tumor,BLADDER,CRF
933,CDISCPILOT01,TR,01-701-1034,TRSEQ,237,TRLOC,Location of the Tumor,BLADDER,CRF
934,CDISCPILOT01,TR,01-701-1034,TRSEQ,238,TRLOC,Location of the Tumor,BODY,CRF
935,CDISCPILOT01,TR,01-701-1034,TRSEQ,239,TRLOC,Location of the Tumor,BODY,CRF
936,CDISCPILOT01,TR,01-701-1034,TRSEQ,240,TRLOC,Location of the Tumor,BODY,CRF
937,CDISCPILOT01,TR,01-701-1034,TRSEQ,241,TRLOC,Location of the Tumor,BONE,CRF
938,CDISCPILOT01,TR,01-701-1034,TRSEQ,242,TRLOC,Location of the Tumor,BONE,CRF
939,CDISCPILOT01,TR,01-701-1034,TRSEQ,243,TRLOC,Location of the Tumor,BONE,CRF
940,CDISCPILOT01,TR,01-701-1034,TRSEQ,244,TRLOC,Location of the Tumor,BREAST,CRF
941,CDISCPILOT01,TR,01-701-1034,TRSEQ,245,TRLOC,Location of the Tumor,BREAST,CRF
942,CDISCPILOT01,TR,01-701-1034,TRSEQ,246,TRLOC,Location of the Tumor,BREAST,CRF
943,CDISCPILOT01,TR,01-701-1034,TRSEQ,247,TRLOC,Location of the Tumor,CHEST,CRF
944,CDISCPILOT01,TR,01-701-1034,TRSEQ,248,TRLOC,Location of the Tumor,CHEST,CRF
945,CDISCPILOT01,TR,01-701-1034,TRSEQ,249,TRLOC,Location of the Tumor,CHEST,CRF
946,CDISCPILOT01,TR,01-701-1034,TRSEQ,250,TRLOC,Location of the Tumor,,CRF
947,CDISCPILOT01,TR,01-701-1034,TRSEQ,251,TRLOC,Location of the Tumor,,CRF
948,CDISCPILOT01,TR,01-701-1034,TRSEQ,252,TRLOC,Location of the Tumor,,CRF
949,CDISCPILOT01,TR,01-701-1034,TRSEQ,253,TRLOC,Location of the Tumor,,CRF
950,CDISCPILOT01,TR,01-701-1034,TRSEQ,254,TRLOC,Location of the Tumor,,CRF
951,CDISCPILOT01,TR,01-701-1034,TRSEQ,255,TRLOC,Location of the Tumor,,CRF
952,CDISCPILOT01,TR,01-701-1034,TRSEQ,256,TRLOC,Location of the Tumor,,CRF
953,CDISCPILOT01,TR,01-701-1034,TRSEQ,257,TRLOC,Location of the Tumor,,CRF
954,CDISCPILOT01,TR,01-701-1034,TRSEQ,258,TRLOC,Location of the Tumor,,CRF
955,CDISCPILOT01,TR,01-701-1034,TRSEQ,259,TRLOC,Location of the Tumor,,CRF
956,CDISCPILOT01,TR,01-701-1034,TRSEQ,260,TRLOC,Location of the Tumor,,CRF
957,CDISCPILOT01,TR,01-701-1034,TRSEQ,261,TRLOC,Location of the Tumor,,CRF
958,CDISCPILOT01,TR,01-701-1034,TRSEQ,262,TRLOC,Location of the Tumor,,CRF
959,CDISCPILOT01,TR,01-701-1034,TRSEQ,263,TRLOC,Location of the Tumor,,CRF
960,CDISCPILOT01,TR,01-701-1034,TRSEQ,264,TRLOC,Location of the Tumor,,CRF
961,CDISCPILOT01,TR,01-701-1034,TRSEQ,265,TRLOC,Location of the Tumor,,CRF
962,CDISCPILOT01,TR,01-701-1034,TRSEQ,266,TRLOC,Location of the Tumor,,CRF
963,CDISCPILOT01,TR,01-701-1034,TRSEQ,267,TRLOC,Location of the Tumor,,CRF
964,CDISCPILOT01,TR,01-701-1034,TRSEQ,268,TRLOC,Location of the Tumor,ADRENAL GLAND,CRF
965,CDISCPILOT01,TR,01-701-1034,TRSEQ,269,TRLOC,Location of the Tumor,ADRENAL GLAND,CRF
966,CDISCPILOT01,TR,01-701-1034,TRSEQ,270,TRLOC,Location of the Tumor,ADRENAL GLAND,CRF
967,CDISCPILOT01,TR,01-701-1034,TRSEQ,271,TRLOC,Location of the Tumor,LYMPH NODE,CRF
968,CDISCPILOT01,TR,01-701-1034,TRSEQ,272,TRLOC,Location of the Tumor,LYMPH NODE,CRF
969,CDISCPILOT01,TR,01-701-1034,TRSEQ,273,TRLOC,Location of the Tumor,LYMPH NODE,CRF
970,CDISCPILOT01,TR,01-701-1034,TRSEQ,274,TRLOC,Location of the Tumor,BLADDER,CRF
971,CDISCPILOT01,TR,01-701-1034,TRSEQ,275,TRLOC,Location of the Tumor,BLADDER,CRF
972,CDISCPILOT01,TR,01-701-1034,TRSEQ,276,TRLOC,Location of the Tumor,BLADDER,CRF
973,CDISCPILOT01,TR,01-701-1034,TRSEQ,277,TRLOC,Location of the Tumor,BODY,CRF
974,CDISCPILOT01,TR,01-701-1034,TRSEQ,278,TRLOC,Location of the Tumor,BODY,CRF
975,CDISCPILOT01,TR,01-701-1034,TRSEQ,279,TRLOC,Location of the Tumor,BODY,CRF
976,CDISCPILOT01,TR,01-701-1034,TRSEQ,280,TRLOC,Location of the Tumor,BONE,CRF
977,CDISCPILOT01,TR,01-701-1034,TRSEQ,281,TRLOC,Location of the Tumor,BONE,CRF
978,CDISCPILOT01,TR,01-701-1034,TRSEQ,282,TRLOC,Location of the Tumor,BONE,CRF
979,CDISCPILOT01,TR,01-701-1034,TRSEQ,283,TRLOC,Location of the Tumor,ABDOMINAL CAVITY,CRF
980,CDISCPILOT01,TR,01-701-1034,TRSEQ,284,TRLOC,Location of the Tumor,ABDOMINAL CAVITY,CRF
981,CDISCPILOT01,TR,01-701-1034,TRSEQ,285,TRLOC,Location of the Tumor,ABDOMINAL CAVITY,CRF
982,CDISCPILOT01,TR,01-701-1034,TRSEQ,286,TRLOC,Location of the Tumor,ADRENAL GLAND,CRF
983,CDISCPILOT01,TR,01-701-1034,TRSEQ,287,TRLOC,Location of the Tumor,ADRENAL GLAND,CRF
984,CDISCPILOT01,TR,01-701-1034,TRSEQ,288,TRLOC,Location of the Tumor,ADRENAL GLAND,CRF
985,CDISCPILOT01,TR,01-701-1034,TRSEQ,289,TRLOC,Location of the Tumor,LYMPH NODE,CRF
986,CDISCPILOT01,TR,01-701-1034,TRSEQ,290,TRLOC,Location of the Tumor,LYMPH NODE,CRF
987,CDISCPILOT01,TR,01-701-1034,TRSEQ,291,TRLOC,Location of the Tumor,LYMPH NODE,CRF
988,CDISCPILOT01,TR,01-701-1034,TRSEQ,292,TRLOC,Location of the Tumor,BLADDER,CRF
989,CDISCPILOT01,TR,01-701-1034,TRSEQ,293,TRLOC,Location of the Tumor,BLADDER,CRF
990,CDISCPILOT01,TR,01-701-1034,TRSEQ,294,TRLOC,Location of the Tumor,BLADDER,CRF
991,CDISCPILOT01,TR,01-701-1034,TRSEQ,295,TRLOC,Location of the Tumor,BODY,CRF
992,CDISCPILOT01,TR,01-701-1034,TRSEQ,296,TRLOC,Location of the Tumor,BODY,CRF
993,CDISCPILOT01,TR,01-701-1034,TRSEQ,297,TRLOC,Location of the Tumor,BODY,CRF
994,CDISCPILOT01,TR,01-701-1034,TRSEQ,298,TRLOC,Location of the Tumor,ADRENAL GLAND,CRF
995,CDISCPILOT01,TR,01-701-1034,TRSEQ,299,TRLOC,Location of the Tumor,ADRENAL GLAND,CRF
996,CDISCPILOT01,TR,01-701-1034,TRSEQ,300,TRLOC,Location of the Tumor,ADRENAL GLAND,CRF
997,CDISCPILOT01,TR,01-701-1034,TRSEQ,301,TRLOC,Location of the Tumor,LYMPH NODE,CRF
998,CDISCPILOT01,TR,01-701-1034,TRSEQ,302,TRLOC,Location of the Tumor,LYMPH NODE,CRF
999,CDISCPILOT01,TR,01-701-1034,TRSEQ,303,TRLOC,Location of the Tumor,LYMPH NODE,CRF
1000,CDISCPILOT01,TR,01-701-1034,TRSEQ,304,TRLOC,Location of the Tumor,BLADDER,CRF
1001,CDISCPILOT01,TR,01-701-1034,TRSEQ,305,TRLOC,Location of the Tumor,BLADDER,CRF
1002,CDISCPILOT01,TR,01-701-1034,TRSEQ,306,TRLOC,Location of the Tumor,BLADDER,CRF
1003,CDISCPILOT01,TR,01-701-1034,TRSEQ,307,TRLOC,Location of the Tumor,BODY,CRF
1004,CDISCPILOT01,TR,01-701-1034,TRSEQ,308,TRLOC,Location of the Tumor,BODY,CRF
1005,CDISCPILOT01,TR,01-701-1034,TRSEQ,309,TRLOC,Location of the Tumor,BODY,CRF
1006,CDISCPILOT01,TR,01-701-1034,TRSEQ,310,TRLOC,Location of the Tumor,BONE,CRF
1007,CDISCPILOT01,TR,01-701-1034,TRSEQ,311,TRLOC,Location of the Tumor,BONE,CRF
1008,CDISCPILOT01,TR,01-701-1034,TRSEQ,312,TRLOC,Location of the Tumor,BONE,CRF
1009,CDISCPILOT01,TR,01-701-1034,TRSEQ,313,TRLOC,Location of the Tumor,,CRF
1010,CDISCPILOT01,TR,01-701-1034,TRSEQ,314,TRLOC,Location of the Tumor,,CRF
1011,CDISCPILOT01,TR,01-701-1034,TRSEQ,315,TRLOC,Location of the Tumor,,CRF
1012,CDISCPILOT01,TR,01-701-1047,TRSEQ,1,TRLOC,Location of the Tumor,,CRF
1013,CDISCPILOT01,TR,01-701-1047,TRSEQ,2,TRLOC,Location of the Tumor,,CRF
1014,CDISCPILOT01,TR,01-701-1047,TRSEQ,3,TRLOC,Location of the Tumor,,CRF
1015,CDISCPILOT01,TR,01-701-1047,TRSEQ,4,TRLOC,Location of the Tumor,,CRF
1016,CDISCPILOT01,TR,01-701-1047,TRSEQ,5,TRLOC,Location of the Tumor,,CRF
1017,CDISCPILOT01,TR,01-701-1047,TRSEQ,6,TRLOC,Location of the Tumor,,CRF
1018,CDISCPILOT01,TR,01-701-1047,TRSEQ,7,TRLOC,Location of the Tumor,,CRF
1019,CDISCPILOT01,TR,01-701-1047,TRSEQ,8,TRLOC,Location of the Tumor,,CRF
1020,CDISCPILOT01,TR,01-701-1047,TRSEQ,9,TRLOC,Location of the Tumor,,CRF
1021,CDISCPILOT01,TR,01-701-1047,TRSEQ,10,TRLOC,Location of the Tumor,,CRF
1022,CDISCPILOT01,TR,01-701-1047,TRSEQ,11,TRLOC,Location of the Tumor,,CRF
1023,CDISCPILOT01,TR,01-701-1047,TRSEQ,12,TRLOC,Location of the Tumor,,CRF
1024,CDISCPILOT01,TR,01-701-1047,TRSEQ,13,TRLOC,Location of the Tumor,,CRF
1025,CDISCPILOT01,TR,01-701-1047,TRSEQ,14,TRLOC,Location of the Tumor,,CRF
1026,CDISCPILOT01,TR,01-701-1047,TRSEQ,15,TRLOC,Location of the Tumor,,CRF
1027,CDISCPILOT01,TR,01-701-1047,TRSEQ,16,TRLOC,Location of the Tumor,ABDOMINAL CAVITY,CRF
1028,CDISCPILOT01,TR,01-701-1047,TRSEQ,17,TRLOC,Location of the Tumor,ABDOMINAL CAVITY,CRF
1029,CDISCPILOT01,TR,01-701-1047,TRSEQ,18,TRLOC,Location of the Tumor,ABDOMINAL CAVITY,CRF
1030,CDISCPILOT01,TR,01-701-1047,TRSEQ,19,TRLOC,Location of the Tumor,ADRENAL GLAND,CRF
1031,CDISCPILOT01,TR,01-701-1047,TRSEQ,20,TRLOC,Location of the Tumor,ADRENAL GLAND,CRF
1032,CDISCPILOT01,TR,01-701-1047,TRSEQ,21,TRLOC,Location of the Tumor,ADRENAL GLAND,CRF
1033,CDISCPILOT01,TR,01-701-1047,TRSEQ,22,TRLOC,Location of the Tumor,LYMPH NODE,CRF
1034,CDISCPILOT01,TR,01-701-1047,TRSEQ,23,TRLOC,Location of the Tumor,LYMPH NODE,CRF
1035,CDISCPILOT01,TR,01-701-1047,TRSEQ,24,TRLOC,Location of the Tumor,LYMPH NODE,CRF
1036,CDISCPILOT01,TR,01-701-1047,TRSEQ,25,TRLOC,Location of the Tumor,BLADDER,CRF
1037,CDISCPILOT01,TR,01-701-1047,TRSEQ,26,TRLOC,Location of the Tumor,BLADDER,CRF
1038,CDISCPILOT01,TR,01-701-1047,TRSEQ,27,TRLOC,Location of the Tumor,BLADDER,CRF
1039,CDISCPILOT01,TR,01-701-1047,TRSEQ,28,TRLOC,Location of the Tumor,BODY,CRF
1040,CDISCPILOT01,TR,01-701-1047,TRSEQ,29,TRLOC,Location of the Tumor,BODY,CRF
1041,CDISCPILOT01,TR,01-701-1047,TRSEQ,30,TRLOC,Location of the Tumor,BODY,CRF
1042,CDISCPILOT01,TR,01-701-1047,TRSEQ,31,TRLOC,Location of the Tumor,LYMPH NODE,CRF
1043,CDISCPILOT01,TR,01-701-1047,TRSEQ,32,TRLOC,Location of the Tumor,LYMPH NODE,CRF
1044,CDISCPILOT01,TR,01-701-1047,TRSEQ,33,TRLOC,Location of the Tumor,LYMPH NODE,CRF
1045,CDISCPILOT01,TR,01-701-1047,TRSEQ,34,TRLOC,Location of the Tumor,BLADDER,CRF
1046,CDISCPILOT01,TR,01-701-1047,TRSEQ,35,TRLOC,Location of the Tumor,BLADDER,CRF
1047,CDISCPILOT01,TR,01-701-1047,TRSEQ,36,TRLOC,Location of the Tumor,BLADDER,CRF
1048,CDISCPILOT01,TR,01-701-1047,TRSEQ,37,TRLOC,Location of the Tumor,BODY,CRF
1049,CDISCPILOT01,TR,01-701-1047,TRSEQ,38,TRLOC,Location of the Tumor,BODY,CRF
1050,CDISCPILOT01,TR,01-701-1047,TRSEQ,39,TRLOC,Location of the Tumor,BODY,CRF
1051,CDISCPILOT01,TR,01-701-1047,TRSEQ,40,TRLOC,Location of the Tumor,BONE,CRF
1052,CDISCPILOT01,TR,01-701-1047,TRSEQ,41,TRLOC,Location of the Tumor,BONE,CRF
1053,CDISCPILOT01,TR,01-701-1047,TRSEQ,42,TRLOC,Location of the Tumor,BONE,CRF
1054,CDISCPILOT01,TR,01-701-1047,TRSEQ,43,TRLOC,Location of the Tumor,BREAST,CRF
1055,CDISCPILOT01,TR,01-701-1047,TRSEQ,44,TRLOC,Location of the Tumor,BREAST,CRF
1056,CDISCPILOT01,TR,01-701-1047,TRSEQ,45,TRLOC,Location of the Tumor,BREAST,CRF
1057,CDISCPILOT01,TR,01-701-1047,TRSEQ,46,TRLOC,Location of the Tumor,LYMPH NODE,CRF
1058,CDISCPILOT01,TR,01-701-1047,TRSEQ,47,TRLOC,Location of the Tumor,LYMPH NODE,CRF
1059,CDISCPILOT01,TR,01-701-1047,TRSEQ,48,TRLOC,Location of the Tumor,LYMPH NODE,CRF
1060,CDISCPILOT01,TR,01-701-1047,TRSEQ,49,TRLOC,Location of the Tumor,BLADDER,CRF
1061,CDISCPILOT01,TR,01-701-1047,TRSEQ,50,TRLOC,Location of the Tumor,BLADDER,CRF
1062,CDISCPILOT01,TR,01-701-1047,TRSEQ,51,TRLOC,Location of the Tumor,BLADDER,CRF
1063,CDISCPILOT01,TR,01-701-1047,TRSEQ,52,TRLOC,Location of the Tumor,BODY,CRF
1064,CDISCPILOT01,TR,01-701-1047,TRSEQ,53,TRLOC,Location of the Tumor,BODY,CRF
1065,CDISCPILOT01,TR,01-701-1047,TRSEQ,54,TRLOC,Location of the Tumor,BODY,CRF
1066,CDISCPILOT01,TR,01-701-1047,TRSEQ,55,TRLOC,Location of the Tumor,BONE,CRF
1067,CDISCPILOT01,TR,01-701-1047,TRSEQ,56,TRLOC,Location of the Tumor,BONE,CRF
1068,CDISCPILOT01,TR,01-701-1047,TRSEQ,57,TRLOC,Location of the Tumor,BONE,CRF
1069,CDISCPILOT01,TR,01-701-1047,TRSEQ,58,TRLOC,Location of the Tumor,BREAST,CRF
1070,CDISCPILOT01,TR,01-701-1047,TRSEQ,59,TRLOC,Location of the Tumor,BREAST,CRF
1071,CDISCPILOT01,TR,01-701-1047,TRSEQ,60,TRLOC,Location of the Tumor,BREAST,CRF
1072,CDISCPILOT01,TR,01-701-1047,TRSEQ,61,TRLOC,Location of the Tumor,,CRF
1073,CDISCPILOT01,TR,01-701-1047,TRSEQ,62,TRLOC,Location of the Tumor,,CRF
1074,CDISCPILOT01,TR,01-701-1047,TRSEQ,63,TRLOC,Location of the Tumor,,CRF
1075,CDISCPILOT01,TR,01-701-1097,TRSEQ,1,TRLOC,Location of the Tumor,,CRF
1076,CDISCPILOT01,TR,01-701-1097,TRSEQ,2,TRLOC,Location of the Tumor,,CRF
1077,CDISCPILOT01,TR,01-701-1097,TRSEQ,3,TRLOC,Location of the Tumor,,CRF
1078,CDISCPILOT01,TR,01-701-1097,TRSEQ,4,TRLOC,Location of the Tumor,,CRF
1079,CDISCPILOT01,TR,01-701-1097,TRSEQ,5,TRLOC,Location of the Tumor,,CRF
1080,CDISCPILOT01,TR,01-701-1097,TRSEQ,6,TRLOC,Location of the Tumor,,CRF
1081,CDISCPILOT01,TR,01-701-1097,TRSEQ,7,TRLOC,Location of the Tumor,,CRF
1082,CDISCPILOT01,TR,01-701-1097,TRSEQ,8,TRLOC,Location of the Tumor,,CRF
1083,CDISCPILOT01,TR,01-701-1097,TRSEQ,9,TRLOC,Location of the Tumor,,CRF
1084,CDISCPILOT01,TR,01-701-1097,TRSEQ,10,TRLOC,Location of the Tumor,,CRF
1085,CDISCPILOT01,TR,01-701-1097,TRSEQ,11,TRLOC,Location of the Tumor,,CRF
1086,CDISCPILOT01,TR,01-701-1097,TRSEQ,12,TRLOC,Location of the Tumor,,CRF
1087,CDISCPILOT01,TR,01-701-1097,TRSEQ,13,TRLOC,Location of the Tumor,,CRF
1088,CDISCPILOT01,TR,01-701-1097,TRSEQ,14,TRLOC,Location of the Tumor,,CRF
1089,CDISCPILOT01,TR,01-701-1097,TRSEQ,15,TRLOC,Location of the Tumor,,CRF
1090,CDISCPILOT01,TR,01-701-1097,TRSEQ,16,TRLOC,Location of the Tumor,BLADDER,CRF
1091,CDISCPILOT01,TR,01-701-1097,TRSEQ,17,TRLOC,Location of the Tumor,BLADDER,CRF
1092,CDISCPILOT01,TR,01-701-1097,TRSEQ,18,TRLOC,Location of the Tumor,BLADDER,CRF
1093,CDISCPILOT01,TR,01-701-1097,TRSEQ,19,TRLOC,Location of the Tumor,BODY,CRF
1094,CDISCPILOT01,TR,01-701-1097,TRSEQ,20,TRLOC,Location of the Tumor,BODY,CRF
1095,CDISCPILOT01,TR,01-701-1097,TRSEQ,21,TRLOC,Location of the Tumor,BODY,CRF
1096,CDISCPILOT01,TR,01-701-1097,TRSEQ,22,TRLOC,Location of the Tumor,BONE,CRF
1097,CDISCPILOT01,TR,01-701-1097,TRSEQ,23,TRLOC,Location of the Tumor,BONE,CRF
1098,CDISCPILOT01,TR,01-701-1097,TRSEQ,24,TRLOC,Location of the Tumor,BONE,CRF
1099,CDISCPILOT01,TR,01-701-1097,TRSEQ,25,TRLOC,Location of the Tumor,BREAST,CRF
1100,CDISCPILOT01,TR,01-701-1097,TRSEQ,26,TRLOC,Location of the Tumor,BREAST,CRF
1101,CDISCPILOT01,TR,01-701-1097,TRSEQ,27,TRLOC,Location of the Tumor,BREAST,CRF
1102,CDISCPILOT01,TR,01-701-1097,TRSEQ,28,TRLOC,Location of the Tumor,CHEST,CRF
1103,CDISCPILOT01,TR,01-701-1097,TRSEQ,29,TRLOC,Location of the Tumor,CHEST,CRF
1104,CDISCPILOT01,TR,01-701-1097,TRSEQ,30,TRLOC,Location of the Tumor,CHEST,CRF
1105,CDISCPILOT01,TR,01-701-1097,TRSEQ,31,TRLOC,Location of the Tumor,BLADDER,CRF
1106,CDISCPILOT01,TR,01-701-1097,TRSEQ,32,TRLOC,Location of the Tumor,BLADDER,CRF
1107,CDISCPILOT01,TR,01-701-1097,TRSEQ,33,TRLOC,Location of the Tumor,BLADDER,CRF
1108,CDISCPILOT01,TR,01-701-1097,TRSEQ,34,TRLOC,Location of the Tumor,BODY,CRF
1109,CDISCPILOT01,TR,01-701-1097,TRSEQ,35,TRLOC,Location of the Tumor,BODY,CRF
1110,CDISCPILOT01,TR,01-701-1097,TRSEQ,36,TRLOC,Location of the Tumor,BODY,CRF
1111,CDISCPILOT01,TR,01-701-1097,TRSEQ,37,TRLOC,Location of the Tumor,BONE,CRF
1112,CDISCPILOT01,TR,01-701-1097,TRSEQ,38,TRLOC,Location of the Tumor,BONE,CRF
1113,CDISCPILOT01,TR,01-701-1097,TRSEQ,39,TRLOC,Location of the Tumor,BONE,CRF
1114,CDISCPILOT01,TR,01-701-1097,TRSEQ,40,TRLOC,Location of the Tumor,BREAST,CRF
1115,CDISCPILOT01,TR,01-701-1097,TRSEQ,41,TRLOC,Location of the Tumor,BREAST,CRF
1116,CDISCPILOT01,TR,01-701-1097,TRSEQ,42,TRLOC,Location of the Tumor,BREAST,CRF
1117,CDISCPILOT01,TR,01-701-1097,TRSEQ,43,TRLOC,Location of the Tumor,CHEST,CRF
1118,CDISCPILOT01,TR,01-701-1097,TRSEQ,44,TRLOC,Location of the Tumor,CHEST,CRF
1119,CDISCPILOT01,TR,01-701-1097,TRSEQ,45,TRLOC,Location of the Tumor,CHEST,CRF
1120,CDISCPILOT01,TR,01-701-1097,TRSEQ,46,TRLOC,Location of the Tumor,BLADDER,CRF
1121,CDISCPILOT01,TR,01-701-1097,TRSEQ,47,TRLOC,Location of the Tumor,BLADDER,CRF
1122,CDISCPILOT01,TR,01-701-1097,TRSEQ,48,TRLOC,Location of the Tumor,BLADDER,CRF
1123,CDISCPILOT01,TR,01-701-1097,TRSEQ,49,TRLOC,Location of the Tumor,BODY,CRF
1124,CDISCPILOT01,TR,01-701-1097,TRSEQ,50,TRLOC,Location of the Tumor,BODY,CRF
1125,CDISCPILOT01,TR,01-701-1097,TRSEQ,51,TRLOC,Location of the Tumor,BODY,CRF
1126,CDISCPILOT01,TR,01-701-1097,TRSEQ,52,TRLOC,Location of the Tumor,BONE,CRF
1127,CDISCPILOT01,TR,01-701-1097,TRSEQ,53,TRLOC,Location of the Tumor,BONE,CRF
1128,CDISCPILOT01,TR,01-701-1097,TRSEQ,54,TRLOC,Location of the Tumor,BONE,CRF
1129,CDISCPILOT01,TR,01-701-1097,TRSEQ,55,TRLOC,Location of the Tumor,BREAST,CRF
1130,CDISCPILOT01,TR,01-701-1097,TRSEQ,56,TRLOC,Location of the Tumor,BREAST,CRF
1131,CDISCPILOT01,TR,01-701-1097,TRSEQ,57,TRLOC,Location of the Tumor,BREAST,CRF
1132,CDISCPILOT01,TR,01-701-1097,TRSEQ,58,TRLOC,Location of the Tumor,CHEST,CRF
1133,CDISCPILOT01,TR,01-701-1097,TRSEQ,59,TRLOC,Location of the Tumor,CHEST,CRF
1134,CDISCPILOT01,TR,01-701-1097,TRSEQ,60,TRLOC,Location of the Tumor,CHEST,CRF
1135,CDISCPILOT01,TR,01-701-1097,TRSEQ,61,TRLOC,Location of the Tumor,,CRF
1136,CDISCPILOT01,TR,01-701-1097,TRSEQ,62,TRLOC,Location of the Tumor,,CRF
1137,CDISCPILOT01,TR,01-701-1097,TRSEQ,63,TRLOC,Location of the Tumor,,CRF
1138,CDISCPILOT01,TR,01-701-1097,TRSEQ,64,TRLOC,Location of the Tumor,,CRF
1139,CDISCPILOT01,TR,01-701-1097,TRSEQ,65,TRLOC,Location of the Tumor,,CRF
1140,CDISCPILOT01,TR,01-701-1097,TRSEQ,66,TRLOC,Location of the Tumor,,CRF
1141,CDISCPILOT01,TR,01-701-1097,TRSEQ,67,TRLOC,Location of the Tumor,,CRF
1142,CDISCPILOT01,TR,01-701-1097,TRSEQ,68,TRLOC,Location of the Tumor,,CRF
1143,CDISCPILOT01,TR,01-701-1097,TRSEQ,69,TRLOC,Location of the Tumor,,CRF
1144,CDISCPILOT01,TR,01-701-1097,TRSEQ,70,TRLOC,Location of the Tumor,,CRF
1145,CDISCPILOT01,TR,01-701-1097,TRSEQ,71,TRLOC,Location of the Tumor,,CRF
1146,CDISCPILOT01,TR,01-701-1097,TRSEQ,72,TRLOC,Location of the Tumor,,CRF
1147,CDISCPILOT01,TR,01-701-1097,TRSEQ,73,TRLOC,Location of the Tumor,,CRF
1148,CDISCPILOT01,TR,01-701-1097,TRSEQ,74,TRLOC,Location of the Tumor,,CRF
1149,CDISCPILOT01,TR,01-701-1097,TRSEQ,75,TRLOC,Location of the Tumor,,CRF
1150,CDISCPILOT01,TR,01-701-1097,TRSEQ,76,TRLOC,Location of the Tumor,,CRF
1151,CDISCPILOT01,TR,01-701-1097,TRSEQ,77,TRLOC,Location of the Tumor,,CRF
1152,CDISCPILOT01,TR,01-701-1097,TRSEQ,78,TRLOC,Location of the Tumor,,CRF
1153,CDISCPILOT01,TR,01-701-1097,TRSEQ,79,TRLOC,Location of the Tumor,LYMPH NODE,CRF
1154,CDISCPILOT01,TR,01-701-1097,TRSEQ,80,TRLOC,Location of the Tumor,LYMPH NODE,CRF
1155,CDISCPILOT01,TR,01-701-1097,TRSEQ,81,TRLOC,Location of the Tumor,LYMPH NODE,CRF
1156,CDISCPILOT01,TR,01-701-1097,TRSEQ,82,TRLOC,Location of the Tumor,BLADDER,CRF
1157,CDISCPILOT01,TR,01-701-1097,TRSEQ,83,TRLOC,Location of the Tumor,BLADDER,CRF
1158,CDISCPILOT01,TR,01-701-1097,TRSEQ,84,TRLOC,Location of the Tumor,BLADDER,CRF
1159,CDISCPILOT01,TR,01-701-1097,TRSEQ,85,TRLOC,Location of the Tumor,BODY,CRF
1160,CDISCPILOT01,TR,01-701-1097,TRSEQ,86,TRLOC,Location of the Tumor,BODY,CRF
1161,CDISCPILOT01,TR,01-701-1097,TRSEQ,87,TRLOC,Location of the Tumor,BODY,CRF
1162,CDISCPILOT01,TR,01-701-1097,TRSEQ,88,TRLOC,Location of the Tumor,BONE,CRF
1163,CDISCPILOT01,TR,01-701-1097,TRSEQ,89,TRLOC,Location of the Tumor,BONE,CRF
1164,CDISCPILOT01,TR,01-701-1097,TRSEQ,90,TRLOC,Location of the Tumor,BONE,CRF
1165,CDISCPILOT01,TR,01-701-1097,TRSEQ,91,TRLOC,Location of the Tumor,BREAST,CRF
1166,CDISCPILOT01,TR,01-701-1097,TRSEQ,92,TRLOC,Location of the Tumor,BREAST,CRF
1167,CDISCPILOT01,TR,01-701-1097,TRSEQ,93,TRLOC,Location of the Tumor,BREAST,CRF
1168,CDISCPILOT01,TR,01-701-1097,TRSEQ,94,TRLOC,Location of the Tumor,LYMPH NODE,CRF
1169,CDISCPILOT01,TR,01-701-1097,TRSEQ,95,TRLOC,Location of the Tumor,LYMPH NODE,CRF
1170,CDISCPILOT01,TR,01-701-1097,TRSEQ,96,TRLOC,Location of the Tumor,LYMPH NODE,CRF
1171,CDISCPILOT01,TR,01-701-1097,TRSEQ,97,TRLOC,Location of the Tumor,BLADDER,CRF
1172,CDISCPILOT01,TR,01-701-1097,TRSEQ,98,TRLOC,Location of the Tumor,BLADDER,CRF
1173,CDISCPILOT01,TR,01-701-1097,TRSEQ,99,TRLOC,Location of the Tumor,BLADDER,CRF
1174,CDISCPILOT01,TR,01-701-1097,TRSEQ,100,TRLOC,Location of the Tumor,BODY,CRF
1175,CDISCPILOT01,TR,01-701-1097,TRSEQ,101,TRLOC,Location of the Tumor,BODY,CRF
1176,CDISCPILOT01,TR,01-701-1097,TRSEQ,102,TRLOC,Location of the Tumor,BODY,CRF
1177,CDISCPILOT01,TR,01-701-1097,TRSEQ,103,TRLOC,Location of the Tumor,BONE,CRF
1178,CDISCPILOT01,TR,01-701-1097,TRSEQ,104,TRLOC,Location of the Tumor,BONE,CRF
1179,CDISCPILOT01,TR,01-701-1097,TRSEQ,105,TRLOC,Location of the Tumor,BONE,CRF
1180,CDISCPILOT01,TR,01-701-1097,TRSEQ,106,TRLOC,Location of the Tumor,BREAST,CRF
1181,CDISCPILOT01,TR,01-701-1097,TRSEQ,107,TRLOC,Location of the Tumor,BREAST,CRF
1182,CDISCPILOT01,TR,01-701-1097,TRSEQ,108,TRLOC,Location of the Tumor,BREAST,CRF
1183,CDISCPILOT01,TR,01-701-1097,TRSEQ,109,TRLOC,Location of the Tumor,ADRENAL GLAND,CRF
1184,CDISCPILOT01,TR,01-701-1097,TRSEQ,110,TRLOC,Location of the Tumor,ADRENAL GLAND,CRF
1185,CDISCPILOT01,TR,01-701-1097,TRSEQ,111,TRLOC,Location of the Tumor,ADRENAL GLAND,CRF
1186,CDISCPILOT01,TR,01-701-1097,TRSEQ,112,TRLOC,Location of the Tumor,LYMPH NODE,CRF
1187,CDISCPILOT01,TR,01-701-1097,TRSEQ,113,TRLOC,Location of the Tumor,LYMPH NODE,CRF
1188,CDISCPILOT01,TR,01-701-1097,TRSEQ,114,TRLOC,Location of the Tumor,LYMPH NODE,CRF
1189,CDISCPILOT01,TR,01-701-1097,TRSEQ,115,TRLOC,Location of the Tumor,BLADDER,CRF
1190,CDISCPILOT01,TR,01-701-1097,TRSEQ,116,TRLOC,Location of the Tumor,BLADDER,CRF
1191,CDISCPILOT01,TR,01-701-1097,TRSEQ,117,TRLOC,Location of the Tumor,BLADDER,CRF
1192,CDISCPILOT01,TR,01-701-1097,TRSEQ,118,TRLOC,Location of the Tumor,BODY,CRF
1193,CDISCPILOT01,TR,01-701-1097,TRSEQ,119,TRLOC,Location of the Tumor,BODY,CRF
1194,CDISCPILOT01,TR,01-701-1097,TRSEQ,120,TRLOC,Location of the Tumor,BODY,CRF
1195,CDISCPILOT01,TR,01-701-1097,TRSEQ,121,TRLOC,Location of the Tumor,BONE,CRF
1196,CDISCPILOT01,TR,01-701-1097,TRSEQ,122,TRLOC,Location of the Tumor,BONE,CRF
1197,CDISCPILOT01,TR,01-701-1097,TRSEQ,123,TRLOC,Location of the Tumor,BONE,CRF
1198,CDISCPILOT01,TR,01-701-1097,TRSEQ,124,TRLOC,Location of the Tumor,,CRF
1199,CDISCPILOT01,TR,01-701-1097,TRSEQ,125,TRLOC,Location of the Tumor,,CRF
1200,CDISCPILOT01,TR,01-701-1097,TRSEQ,126,TRLOC,Location of the Tumor,,CRF
1201,CDISCPILOT01,TR,01-701-1097,TRSEQ,127,TRLOC,Location of the Tumor,,CRF
1202,CDISCPILOT01,TR,01-701-1097,TRSEQ,128,TRLOC,Location of the Tumor,,CRF
1203,CDISCPILOT01,TR,01-701-1097,TRSEQ,129,TRLOC,Location of the Tumor,,CRF
1204,CDISCPILOT01,TR,01-701-1097,TRSEQ,130,TRLOC,Location of the Tumor,,CRF
1205,CDISCPILOT01,TR,01-701-1097,TRSEQ,131,TRLOC,Location of the Tumor,,CRF
1206,CDISCPILOT01,TR,01-701-1097,TRSEQ,132,TRLOC,Location of the Tumor,,CRF
1207,CDISCPILOT01,TR,01-701-1097,TRSEQ,133,TRLOC,Location of the Tumor,,CRF
1208,CDISCPILOT01,TR,01-701-1097,TRSEQ,134,TRLOC,Location of the Tumor,,CRF
1209,CDISCPILOT01,TR,01-701-1097,TRSEQ,135,TRLOC,Location of the Tumor,,CRF
1210,CDISCPILOT01,TR,01-701-1097,TRSEQ,136,TRLOC,Location of the Tumor,,CRF
1211,CDISCPILOT01,TR,01-701-1097,TRSEQ,137,TRLOC,Location of the Tumor,,CRF
1212,CDISCPILOT01,TR,01-701-1097,TRSEQ,138,TRLOC,Location of the Tumor,,CRF
1213,CDISCPILOT01,TR,01-701-1097,TRSEQ,139,TRLOC,Location of the Tumor,,CRF
1214,CDISCPILOT01,TR,01-701-1097,TRSEQ,140,TRLOC,Location of the Tumor,,CRF
1215,CDISCPILOT01,TR,01-701-1097,TRSEQ,141,TRLOC,Location of the Tumor,,CRF
1216,CDISCPILOT01,TR,01-701-1097,TRSEQ,142,TRLOC,Location of the Tumor,ADRENAL GLAND,CRF
1217,CDISCPILOT01,TR,01-701-1097,TRSEQ,143,TRLOC,Location of the Tumor,ADRENAL GLAND,CRF
1218,CDISCPILOT01,TR,01-701-1097,TRSEQ,144,TRLOC,Location of the Tumor,ADRENAL GLAND,CRF
1219,CDISCPILOT01,TR,01-701-1097,TRSEQ,145,TRLOC,Location of the Tumor,LYMPH NODE,CRF
1220,CDISCPILOT01,TR,01-701-1097,TRSEQ,146,TRLOC,Location of the Tumor,LYMPH NODE,CRF
1221,CDISCPILOT01,TR,01-701-1097,TRSEQ,147,TRLOC,Location of the Tumor,LYMPH NODE,CRF
1222,CDISCPILOT01,TR,01-701-1097,TRSEQ,148,TRLOC,Location of the Tumor,BLADDER,CRF
1223,CDISCPILOT01,TR,01-701-1097,TRSEQ,149,TRLOC,Location of the Tumor,BLADDER,CRF
1224,CDISCPILOT01,TR,01-701-1097,TRSEQ,150,TRLOC,Location of the Tumor,BLADDER,CRF
1225,CDISCPILOT01,TR,01-701-1097,TRSEQ,151,TRLOC,Location of the Tumor,BODY,CRF
1226,CDISCPILOT01,TR,01-701-1097,TRSEQ,152,TRLOC,Location of the Tumor,BODY,CRF
1227,CDISCPILOT01,TR,01-701-1097,TRSEQ,153,TRLOC,Location of the Tumor,BODY,CRF
1228,CDISCPILOT01,TR,01-701-1097,TRSEQ,154,TRLOC,Location of the Tumor,BONE,CRF
1229,CDISCPILOT01,TR,01-701-1097,TRSEQ,155,TRLOC,Location of the Tumor,BONE,CRF
1230,CDISCPILOT01,TR,01-701-1097,TRSEQ,156,TRLOC,Location of the Tumor,BONE,CRF
1231,CDISCPILOT01,TR,01-701-1097,TRSEQ,157,TRLOC,Location of the Tumor,LYMPH NODE,CRF
1232,CDISCPILOT01,TR,01-701-1097,TRSEQ,158,TRLOC,Location of the Tumor,LYMPH NODE,CRF
1233,CDISCPILOT01,TR,01-701-1097,TRSEQ,159,TRLOC,Location of the Tumor,LYMPH NODE,CRF
1234,CDISCPILOT01,TR,01-701-1097,TRSEQ,160,TRLOC,Location of the Tumor,BLADDER,CRF
1235,CDISCPILOT01,TR,01-701-1097,TRSEQ,161,TRLOC,Location of the Tumor,BLADDER,CRF
1236,CDISCPILOT01,TR,01-701-1097,TRSEQ,162,TRLOC,Location of the Tumor,BLADDER,CRF
1237,CDISCPILOT01,TR,01-701-1097,TRSEQ,163,TRLOC,Location of the Tumor,BODY,CRF
1238,CDISCPILOT01,TR,01-701-1097,TRSEQ,164,TRLOC,Location of the Tumor,BODY,CRF
1239,CDISCPILOT01,TR,01-701-1097,TRSEQ,165,TRLOC,Location of the Tumor,BODY,CRF
1240,CDISCPILOT01,TR,01-701-1097,TRSEQ,166,TRLOC,Location of the Tumor,BONE,CRF
1241,CDISCPILOT01,TR,01-701-1097,TRSEQ,167,TRLOC,Location of the Tumor,BONE,CRF
1242,CDISCPILOT01,TR,01-701-1097,TRSEQ,168,TRLOC,Location of the Tumor,BONE,CRF
1243,CDISCPILOT01,TR,01-701-1097,TRSEQ,169,TRLOC,Location of the Tumor,BREAST,CRF
1244,CDISCPILOT01,TR,01-701-1097,TRSEQ,170,TRLOC,Location of the Tumor,BREAST,CRF
1245,CDISCPILOT01,TR,01-701-1097,TRSEQ,171,TRLOC,Location of the Tumor,BREAST,CRF
1246,CDISCPILOT01,TR,01-701-1097,TRSEQ,172,TRLOC,Location of the Tumor,BLADDER,CRF
1247,CDISCPILOT01,TR,01-701-1097,TRSEQ,173,TRLOC,Location of the Tumor,BLADDER,CRF
1248,CDISCPILOT01,TR,01-701-1097,TRSEQ,174,TRLOC,Location of the Tumor,BLADDER,CRF
1249,CDISCPILOT01,TR,01-701-1097,TRSEQ,175,TRLOC,Location of the Tumor,BODY,CRF
1250,CDISCPILOT01,TR,01-701-1097,TRSEQ,176,TRLOC,Location of the Tumor,BODY,CRF
1251,CDISCPILOT01,TR,01-701-1097,TRSEQ,177,TRLOC,Location of the Tumor,BODY,CRF
1252,CDISCPILOT01,TR,01-701-1097,TRSEQ,178,TRLOC,Location of the Tumor,BONE,CRF
1253,CDISCPILOT01,TR,01-701-1097,TRSEQ,179,TRLOC,Location of the Tumor,BONE,CRF
1254,CDISCPILOT01,TR,01-701-1097,TRSEQ,180,TRLOC,Location of the Tumor,BONE,CRF
1255,CDISCPILOT01,TR,01-701-1097,TRSEQ,181,TRLOC,Location of the Tumor,BREAST,CRF
1256,CDISCPILOT01,TR,01-701-1097,TRSEQ,182,TRLOC,Location of the Tumor,BREAST,CRF
1257,CDISCPILOT01,TR,01-701-1097,TRSEQ,183,TRLOC,Location of the Tumor,BREAST,CRF
1258,CDISCPILOT01,TR,01-701-1097,TRSEQ,184,TRLOC,Location of the Tumor,CHEST,CRF
1259,CDISCPILOT01,TR,01-701-1097,TRSEQ,185,TRLOC,Location of the Tumor,CHEST,CRF
1260,CDISCPILOT01,TR,01-701-1097,TRSEQ,186,TRLOC,Location of the Tumor,CHEST,CRF
1261,CDISCPILOT01,TR,01-701-1097,TRSEQ,187,TRLOC,Location of the Tumor,,CRF
1262,CDISCPILOT01,TR,01-701-1097,TRSEQ,188,TRLOC,Location of the Tumor,,CRF
1263,CDISCPILOT01,TR,01-701-1097,TRSEQ,189,TRLOC,Location of the Tumor,,CRF
1264,CDISCPILOT01,TR,01-701-1097,TRSEQ,190,TRLOC,Location of the Tumor,,CRF
1265,CDISCPILOT01,TR,01-701-1097,TRSEQ,191,TRLOC,Location of the Tumor,,CRF
1266,CDISCPILOT01,TR,01-701-1097,TRSEQ,192,TRLOC,Location of the Tumor,,CRF
1267,CDISCPILOT01,TR,01-701-1097,TRSEQ,193,TRLOC,Location of the Tumor,,CRF
1268,CDISCPILOT01,TR,01-701-1097,TRSEQ,194,TRLOC,Location of the Tumor,,CRF
1269,CDISCPILOT01,TR,01-701-1097,TRSEQ,195,TRLOC,Location of the Tumor,,CRF
1270,CDISCPILOT01,TR,01-701-1097,TRSEQ,196,TRLOC,Location of the Tumor,,CRF
1271,CDISCPILOT01,TR,01-701-1097,TRSEQ,197,TRLOC,Location of the Tumor,,CRF
1272,CDISCPILOT01,TR,01-701-1097,TRSEQ,198,TRLOC,Location of the Tumor,,CRF
1273,CDISCPILOT01,TR,01-701-1097,TRSEQ,199,TRLOC,Location of the Tumor,,CRF
1274,CDISCPILOT01,TR,01-701-1097,TRSEQ,200,TRLOC,Location of the Tumor,,CRF
1275,CDISCPILOT01,TR,01-701-1097,TRSEQ,201,TRLOC,Location of the Tumor,,CRF
1276,CDISCPILOT01,TR,01-701-1097,TRSEQ,202,TRLOC,Location of the Tumor,,CRF
1277,CDISCPILOT01,TR,01-701-1097,TRSEQ,203,TRLOC,Location of the Tumor,,CRF
1278,CDISCPILOT01,TR,01-701-1097,TRSEQ,204,TRLOC,Location of the Tumor,,CRF
1279,CDISCPILOT01,TR,01-701-1097,TRSEQ,205,TRLOC,Location of the Tumor,ABDOMINAL CAVITY,CRF
1280,CDISCPILOT01,TR,01-701-1097,TRSEQ,206,TRLOC,Location of the Tumor,ABDOMINAL CAVITY,CRF
1281,CDISCPILOT01,TR,01-701-1097,TRSEQ,207,TRLOC,Location of the Tumor,ABDOMINAL CAVITY,CRF
1282,CDISCPILOT01,TR,01-701-1097,TRSEQ,208,TRLOC,Location of the Tumor,ADRENAL GLAND,CRF
1283,CDISCPILOT01,TR,01-701-1097,TRSEQ,209,TRLOC,Location of the Tumor,ADRENAL GLAND,CRF
1284,CDISCPILOT01,TR,01-701-1097,TRSEQ,210,TRLOC,Location of the Tumor,ADRENAL GLAND,CRF
1285,CDISCPILOT01,TR,01-701-1097,TRSEQ,211,TRLOC,Location of the Tumor,LYMPH NODE,CRF
1286,CDISCPILOT01,TR,01-701-1097,TRSEQ,212,TRLOC,Location of the Tumor,LYMPH NODE,CRF
1287,CDISCPILOT01,TR,01-701-1097,TRSEQ,213,TRLOC,Location of the Tumor,LYMPH NODE,CRF
1288,CDISCPILOT01,TR,01-701-1097,TRSEQ,214,TRLOC,Location of the Tumor,BLADDER,CRF
1289,CDISCPILOT01,TR,01-701-1097,TRSEQ,215,TRLOC,Location of the Tumor,BLADDER,CRF
1290,CDISCPILOT01,TR,01-701-1097,TRSEQ,216,TRLOC,Location of the Tumor,BLADDER,CRF
1291,CDISCPILOT01,TR,01-701-1097,TRSEQ,217,TRLOC,Location of the Tumor,BODY,CRF
1292,CDISCPILOT01,TR,01-701-1097,TRSEQ,218,TRLOC,Location of the Tumor,BODY,CRF
1293,CDISCPILOT01,TR,01-701-1097,TRSEQ,219,TRLOC,Location of the Tumor,BODY,CRF
1294,CDISCPILOT01,TR,01-701-1097,TRSEQ,220,TRLOC,Location of the Tumor,ADRENAL GLAND,CRF
1295,CDISCPILOT01,TR,01-701-1097,TRSEQ,221,TRLOC,Location of the Tumor,ADRENAL GLAND,CRF
1296,CDISCPILOT01,TR,01-701-1097,TRSEQ,222,TRLOC,Location of the Tumor,ADRENAL GLAND,CRF
1297,CDISCPILOT01,TR,01-701-1097,TRSEQ,223,TRLOC,Location of the Tumor,LYMPH NODE,CRF
1298,CDISCPILOT01,TR,01-701-1097,TRSEQ,224,TRLOC,Location of the Tumor,LYMPH NODE,CRF
1299,CDISCPILOT01,TR,01-701-1097,TRSEQ,225,TRLOC,Location of the Tumor,LYMPH NODE,CRF
1300,CDISCPILOT01,TR,01-701-1097,TRSEQ,226,TRLOC,Location of the Tumor,BLADDER,CRF
1301,CDISCPILOT01,TR,01-701-1097,TRSEQ,227,TRLOC,Location of the Tumor,BLADDER,CRF
1302,CDISCPILOT01,TR,01-701-1097,TRSEQ,228,TRLOC,Location of the Tumor,BLADDER,CRF
1303,CDISCPILOT01,TR,01-701-1097,TRSEQ,229,TRLOC,Location of the Tumor,BODY,CRF
1304,CDISCPILOT01,TR,01-701-1097,TRSEQ,230,TRLOC,Location of the Tumor,BODY,CRF
1305,CDISCPILOT01,TR,01-701-1097,TRSEQ,231,TRLOC,Location of the Tumor,BODY,CRF
1306,CDISCPILOT01,TR,01-701-1097,TRSEQ,232,TRLOC,Location of the Tumor,BONE,CRF
1307,CDISCPILOT01,TR,01-701-1097,TRSEQ,233,TRLOC,Location of the Tumor,BONE,CRF
1308,CDISCPILOT01,TR,01-701-1097,TRSEQ,234,TRLOC,Location of the Tumor,BONE,CRF
1309,CDISCPILOT01,TR,01-701-1097,TRSEQ,235,TRLOC,Location of the Tumor,BLADDER,CRF
1310,CDISCPILOT01,TR,01-701-1097,TRSEQ,236,TRLOC,Location of the Tumor,BLADDER,CRF
1311,CDISCPILOT01,TR,01-701-1097,TRSEQ,237,TRLOC,Location of the Tumor,BLADDER,CRF
1312,CDISCPILOT01,TR,01-701-1097,TRSEQ,238,TRLOC,Location of the Tumor,BODY,CRF
1313,CDISCPILOT01,TR,01-701-1097,TRSEQ,239,TRLOC,Location of the Tumor,BODY,CRF
1314,CDISCPILOT01,TR,01-701-1097,TRSEQ,240,TRLOC,Location of the Tumor,BODY,CRF
1315,CDISCPILOT01,TR,01-701-1097,TRSEQ,241,TRLOC,Location of the Tumor,BONE,CRF
1316,CDISCPILOT01,TR,01-701-1097,TRSEQ,242,TRLOC,Location of the Tumor,BONE,CRF
1317,CDISCPILOT01,TR,01-701-1097,TRSEQ,243,TRLOC,Location of the Tumor,BONE,CRF
1318,CDISCPILOT01,TR,01-701-1097,TRSEQ,244,TRLOC,Location of the Tumor,BREAST,CRF
1319,CDISCPILOT01,TR,01-701-1097,TRSEQ,245,TRLOC,Location of the Tumor,BREAST,CRF
1320,CDISCPILOT01,TR,01-701-1097,TRSEQ,246,TRLOC,Location of the Tumor,BREAST,CRF
1321,CDISCPILOT01,TR,01-701-1097,TRSEQ,247,TRLOC,Location of the Tumor,CHEST,CRF
1322,CDISCPILOT01,TR,01-701-1097,TRSEQ,248,TRLOC,Location of the Tumor,CHEST,CRF
1323,CDISCPILOT01,TR,01-701-1097,TRSEQ,249,TRLOC,Location of the Tumor,CHEST,CRF
1324,CDISCPILOT01,TR,01-701-1097,TRSEQ,250,TRLOC,Location of the Tumor,,CRF
1325,CDISCPILOT01,TR,01-701-1097,TRSEQ,251,TRLOC,Location of the Tumor,,CRF
1326,CDISCPILOT01,TR,01-701-1097,TRSEQ,252,TRLOC,Location of the Tumor,,CRF
1327,CDISCPILOT01,TR,01-701-1097,TRSEQ,253,TRLOC,Location of the Tumor,,CRF
1328,CDISCPILOT01,TR,01-701-1097,TRSEQ,254,TRLOC,Location of the Tumor,,CRF
1329,CDISCPILOT01,TR,01-701-1097,TRSEQ,255,TRLOC,Location of the Tumor,,CRF
1330,CDISCPILOT01,TR,01-701-1097,TRSEQ,256,TRLOC,Location of the Tumor,,CRF
1331,CDISCPILOT01,TR,01-701-1097,TRSEQ,257,TRLOC,Location of the Tumor,,CRF
1332,CDISCPILOT01,TR,01-701-1097,TRSEQ,258,TRLOC,Location of the Tumor,,CRF
1333,CDISCPILOT01,TR,01-701-1097,TRSEQ,259,TRLOC,Location of the Tumor,,CRF
1334,CDISCPILOT01,TR,01-701-1097,TRSEQ,260,TRLOC,Location of the Tumor,,CRF
1335,CDISCPILOT01,TR,01-701-1097,TRSEQ,261,TRLOC,Location of the Tumor,,CRF
1336,CDISCPILOT01,TR,01-701-1097,TRSEQ,262,TRLOC,Location of the Tumor,,CRF
1337,CDISCPILOT01,TR,01-701-1097,TRSEQ,263,TRLOC,Location of the Tumor,,CRF
1338,CDISCPILOT01,TR,01-701-1097,TRSEQ,264,TRLOC,Location of the Tumor,,CRF
1339,CDISCPILOT01,TR,01-701-1097,TRSEQ,265,TRLOC,Location of the Tumor,,CRF
1340,CDISCPILOT01,TR,01-701-1097,TRSEQ,266,TRLOC,Location of the Tumor,,CRF
1341,CDISCPILOT01,TR,01-701-1097,TRSEQ,267,TRLOC,Location of the Tumor,,CRF
1342,CDISCPILOT01,TR,01-701-1097,TRSEQ,268,TRLOC,Location of the Tumor,ABDOMINAL CAVITY,CRF
1343,CDISCPILOT01,TR,01-701-1097,TRSEQ,269,TRLOC,Location of the Tumor,ABDOMINAL CAVITY,CRF
1344,CDISCPILOT01,TR,01-701-1097,TRSEQ,270,TRLOC,Location of the Tumor,ABDOMINAL CAVITY,CRF
1345,CDISCPILOT01,TR,01-701-1097,TRSEQ,271,TRLOC,Location of the Tumor,ADRENAL GLAND,CRF
1346,CDISCPILOT01,TR,01-701-1097,TRSEQ,272,TRLOC,Location of the Tumor,ADRENAL GLAND,CRF
1347,CDISCPILOT01,TR,01-701-1097,TRSEQ,273,TRLOC,Location of the Tumor,ADRENAL GLAND,CRF
1348,CDISCPILOT01,TR,01-701-1097,TRSEQ,274,TRLOC,Location of the Tumor,LYMPH NODE,CRF
1349,CDISCPILOT01,TR,01-701-1097,TRSEQ,275,TRLOC,Location of the Tumor,LYMPH NODE,CRF
1350,CDISCPILOT01,TR,01-701-1097,TRSEQ,276,TRLOC,Location of the Tumor,LYMPH NODE,CRF
1351,CDISCPILOT01,TR,01-701-1097,TRSEQ,277,TRLOC,Location of the Tumor,BLADDER,CRF
1352,CDISCPILOT01,TR,01-701-1097,TRSEQ,278,TRLOC,Location of the Tumor,BLADDER,CRF
1353,CDISCPILOT01,TR,01-701-1097,TRSEQ,279,TRLOC,Location of the Tumor,BLADDER,CRF
1354,CDISCPILOT01,TR,01-701-1097,TRSEQ,280,TRLOC,Location of the Tumor,BODY,CRF
1355,CDISCPILOT01,TR,01-701-1097,TRSEQ,281,TRLOC,Location of the Tumor,BODY,CRF
1356,CDISCPILOT01,TR,01-701-1097,TRSEQ,282,TRLOC,Location of the Tumor,BODY,CRF
1357,CDISCPILOT01,TR,01-701-1097,TRSEQ,283,TRLOC,Location of the Tumor,LYMPH NODE,CRF
1358,CDISCPILOT01,TR,01-701-1097,TRSEQ,284,TRLOC,Location of the Tumor,LYMPH NODE,CRF
1359,CDISCPILOT01,TR,01-701-1097,TRSEQ,285,TRLOC,Location of the Tumor,LYMPH NODE,CRF
1360,CDISCPILOT01,TR,01-701-1097,TRSEQ,286,TRLOC,Location of the Tumor,BLADDER,CRF
1361,CDISCPILOT01,TR,01-701-1097,TRSEQ,287,TRLOC,Location of the Tumor,BLADDER,CRF
1362,CDISCPILOT01,TR,01-701-1097,TRSEQ,288,TRLOC,Location of the Tumor,BLADDER,CRF
1363,CDISCPILOT01,TR,01-701-1097,TRSEQ,289,TRLOC,Location of the Tumor,BODY,CRF
1364,CDISCPILOT01,TR,01-701-1097,TRSEQ,290,TRLOC,Location of the Tumor,BODY,CRF
1365,CDISCPILOT01,TR,01-701-1097,TRSEQ,291,TRLOC,Location of the Tumor,BODY,CRF
1366,CDISCPILOT01,TR,01-701-1097,TRSEQ,292,TRLOC,Location of the Tumor,BONE,CRF
1367,CDISCPILOT01,TR,01-701-1097,TRSEQ,293,TRLOC,Location of the Tumor,BONE,CRF
1368,CDISCPILOT01,TR,01-701-1097,TRSEQ,294,TRLOC,Location of the Tumor,BONE,CRF
1369,CDISCPILOT01,TR,01-701-1097,TRSEQ,295,TRLOC,Location of the Tumor,BREAST,CRF
1370,CDISCPILOT01,TR,01-701-1097,TRSEQ,296,TRLOC,Location of the Tumor,BREAST,CRF
1371,CDISCPILOT01,TR,01-701-1097,TRSEQ,297,TRLOC,Location of the Tumor,BREAST,CRF
1372,CDISCPILOT01,TR,01-701-1097,TRSEQ,298,TRLOC,Location of the Tumor,ABDOMINAL CAVITY,CRF
1373,CDISCPILOT01,TR,01-701-1097,TRSEQ,299,TRLOC,Location of the Tumor,ABDOMINAL CAVITY,CRF
1374,CDISCPILOT01,TR,01-701-1097,TRSEQ,300,TRLOC,Location of the Tumor,ABDOMINAL CAVITY,CRF
1375,CDISCPILOT01,TR,01-701-1097,TRSEQ,301,TRLOC,Location of the Tumor,ADRENAL GLAND,CRF
1376,CDISCPILOT01,TR,01-701-1097,TRSEQ,302,TRLOC,Location of the Tumor,ADRENAL GLAND,CRF
1377,CDISCPILOT01,TR,01-701-1097,TRSEQ,303,TRLOC,Location of the Tumor,ADRENAL GLAND,CRF
1378,CDISCPILOT01,TR,01-701-1097,TRSEQ,304,TRLOC,Location of the Tumor,LYMPH NODE,CRF
1379,CDISCPILOT01,TR,01-701-1097,TRSEQ,305,TRLOC,Location of the Tumor,LYMPH NODE,CRF
1380,CDISCPILOT01,TR,01-701-1097,TRSEQ,306,TRLOC,Location of the Tumor,LYMPH NODE,CRF
1381,CDISCPILOT01,TR,01-701-1097,TRSEQ,307,TRLOC,Location of the Tumor,BLADDER,CRF
1382,CDISCPILOT01,TR,01-701-1097,TRSEQ,308,TRLOC,Location of the Tumor,BLADDER,CRF
1383,CDISCPILOT01,TR,01-701-1097,TRSEQ,309,TRLOC,Location of the Tumor,BLADDER,CRF
1384,CDISCPILOT01,TR,01-701-1097,TRSEQ,310,TRLOC,Location of the Tumor,BODY,CRF
1385,CDISCPILOT01,TR,01-701-1097,TRSEQ,311,TRLOC,Location of the Tumor,BODY,CRF
1386,CDISCPILOT01,TR,01-701-1097,TRSEQ,312,TRLOC,Location of the Tumor,BODY,CRF
1387,CDISCPILOT01,TR,01-701-1097,TRSEQ,313,TRLOC,Location of the Tumor,,CRF
1388,CDISCPILOT01,TR,01-701-1097,TRSEQ,314,TRLOC,Location of the Tumor,,CRF
1389,CDISCPILOT01,TR,01-701-1097,TRSEQ,315,TRLOC,Location of the Tumor,,CRF
1390,CDISCPILOT01,TR,01-701-1111,TRSEQ,1,TRLOC,Location of the Tumor,,CRF
1391,CDISCPILOT01,TR,01-701-1111,TRSEQ,2,TRLOC,Location of the Tumor,,CRF
1392,CDISCPILOT01,TR,01-701-1111,TRSEQ,3,TRLOC,Location of the Tumor,,CRF
1393,CDISCPILOT01,TR,01-701-1111,TRSEQ,4,TRLOC,Location of the Tumor,,CRF
1394,CDISCPILOT01,TR,01-701-1111,TRSEQ,5,TRLOC,Location of the Tumor,,CRF
1395,CDISCPILOT01,TR,01-701-1111,TRSEQ,6,TRLOC,Location of the Tumor,,CRF
1396,CDISCPILOT01,TR,01-701-1111,TRSEQ,7,TRLOC,Location of the Tumor,,CRF
1397,CDISCPILOT01,TR,01-701-1111,TRSEQ,8,TRLOC,Location of the Tumor,,CRF
1398,CDISCPILOT01,TR,01-701-1111,TRSEQ,9,TRLOC,Location of the Tumor,,CRF
1399,CDISCPILOT01,TR,01-701-1111,TRSEQ,10,TRLOC,Location of the Tumor,,CRF
1400,CDISCPILOT01,TR,01-701-1111,TRSEQ,11,TRLOC,Location of the Tumor,,CRF
1401,CDISCPILOT01,TR,01-701-1111,TRSEQ,12,TRLOC,Location of the Tumor,,CRF
1402,CDISCPILOT01,TR,01-701-1111,TRSEQ,13,TRLOC,Location of the Tumor,,CRF
1403,CDISCPILOT01,TR,01-701-1111,TRSEQ,14,TRLOC,Location of the Tumor,,CRF
1404,CDISCPILOT01,TR,01-701-1111,TRSEQ,15,TRLOC,Location of the Tumor,,CRF
1405,CDISCPILOT01,TR,01-701-1111,TRSEQ,16,TRLOC,Location of the Tumor,LYMPH NODE,CRF
1406,CDISCPILOT01,TR,01-701-1111,TRSEQ,17,TRLOC,Location of the Tumor,LYMPH NODE,CRF
1407,CDISCPILOT01,TR,01-701-1111,TRSEQ,18,TRLOC,Location of the Tumor,LYMPH NODE,CRF
1408,CDISCPILOT01,TR,01-701-1111,TRSEQ,19,TRLOC,Location of the Tumor,BLADDER,CRF
1409,CDISCPILOT01,TR,01-701-1111,TRSEQ,20,TRLOC,Location of the Tumor,BLADDER,CRF
1410,CDISCPILOT01,TR,01-701-1111,TRSEQ,21,TRLOC,Location of the Tumor,BLADDER,CRF
1411,CDISCPILOT01,TR,01-701-1111,TRSEQ,22,TRLOC,Location of the Tumor,BODY,CRF
1412,CDISCPILOT01,TR,01-701-1111,TRSEQ,23,TRLOC,Location of the Tumor,BODY,CRF
1413,CDISCPILOT01,TR,01-701-1111,TRSEQ,24,TRLOC,Location of the Tumor,BODY,CRF
1414,CDISCPILOT01,TR,01-701-1111,TRSEQ,25,TRLOC,Location of the Tumor,BONE,CRF
1415,CDISCPILOT01,TR,01-701-1111,TRSEQ,26,TRLOC,Location of the Tumor,BONE,CRF
1416,CDISCPILOT01,TR,01-701-1111,TRSEQ,27,TRLOC,Location of the Tumor,BONE,CRF
1417,CDISCPILOT01,TR,01-701-1111,TRSEQ,28,TRLOC,Location of the Tumor,BREAST,CRF
1418,CDISCPILOT01,TR,01-701-1111,TRSEQ,29,TRLOC,Location of the Tumor,BREAST,CRF
1419,CDISCPILOT01,TR,01-701-1111,TRSEQ,30,TRLOC,Location of the Tumor,BREAST,CRF
1420,CDISCPILOT01,TR,01-701-1111,TRSEQ,31,TRLOC,Location of the Tumor,BLADDER,CRF
1421,CDISCPILOT01,TR,01-701-1111,TRSEQ,32,TRLOC,Location of the Tumor,BLADDER,CRF
1422,CDISCPILOT01,TR,01-701-1111,TRSEQ,33,TRLOC,Location of the Tumor,BLADDER,CRF
1423,CDISCPILOT01,TR,01-701-1111,TRSEQ,34,TRLOC,Location of the Tumor,BODY,CRF
1424,CDISCPILOT01,TR,01-701-1111,TRSEQ,35,TRLOC,Location of the Tumor,BODY,CRF
1425,CDISCPILOT01,TR,01-701-1111,TRSEQ,36,TRLOC,Location of the Tumor,BODY,CRF
1426,CDISCPILOT01,TR,01-701-1111,TRSEQ,37,TRLOC,Location of the Tumor,BONE,CRF
1427,CDISCPILOT01,TR,01-701-1111,TRSEQ,38,TRLOC,Location of the Tumor,BONE,CRF
1428,CDISCPILOT01,TR,01-701-1111,TRSEQ,39,TRLOC,Location of the Tumor,BONE,CRF
1429,CDISCPILOT01,TR,01-701-1111,TRSEQ,40,TRLOC,Location of the Tumor,BREAST,CRF
1430,CDISCPILOT01,TR,01-701-1111,TRSEQ,41,TRLOC,Location of the Tumor,BREAST,CRF
1431,CDISCPILOT01,TR,01-701-1111,TRSEQ,42,TRLOC,Location of the Tumor,BREAST,CRF
1432,CDISCPILOT01,TR,01-701-1111,TRSEQ,43,TRLOC,Location of the Tumor,CHEST,CRF
1433,CDISCPILOT01,TR,01-701-1111,TRSEQ,44,TRLOC,Location of the Tumor,CHEST,CRF
1434,CDISCPILOT01,TR,01-701-1111,TRSEQ,45,TRLOC,Location of the Tumor,CHEST,CRF
1435,CDISCPILOT01,TR,01-701-1111,TRSEQ,46,TRLOC,Location of the Tumor,LYMPH NODE,CRF
1436,CDISCPILOT01,TR,01-701-1111,TRSEQ,47,TRLOC,Location of the Tumor,LYMPH NODE,CRF
1437,CDISCPILOT01,TR,01-701-1111,TRSEQ,48,TRLOC,Location of the Tumor,LYMPH NODE,CRF
1438,CDISCPILOT01,TR,01-701-1111,TRSEQ,49,TRLOC,Location of the Tumor,BLADDER,CRF
1439,CDISCPILOT01,TR,01-701-1111,TRSEQ,50,TRLOC,Location of the Tumor,BLADDER,CRF
1440,CDISCPILOT01,TR,01-701-1111,TRSEQ,51,TRLOC,Location of the Tumor,BLADDER,CRF
1441,CDISCPILOT01,TR,01-701-1111,TRSEQ,52,TRLOC,Location of the Tumor,BODY,CRF
1442,CDISCPILOT01,TR,01-701-1111,TRSEQ,53,TRLOC,Location of the Tumor,BODY,CRF
1443,CDISCPILOT01,TR,01-701-1111,TRSEQ,54,TRLOC,Location of the Tumor,BODY,CRF
1444,CDISCPILOT01,TR,01-701-1111,TRSEQ,55,TRLOC,Location of the Tumor,BONE,CRF
1445,CDISCPILOT01,TR,01-701-1111,TRSEQ,56,TRLOC,Location of the Tumor,BONE,CRF
1446,CDISCPILOT01,TR,01-701-1111,TRSEQ,57,TRLOC,Location of the Tumor,BONE,CRF
1447,CDISCPILOT01,TR,01-701-1111,TRSEQ,58,TRLOC,Location of the Tumor,BREAST,CRF
1448,CDISCPILOT01,TR,01-701-1111,TRSEQ,59,TRLOC,Location of the Tumor,BREAST,CRF
1449,CDISCPILOT01,TR,01-701-1111,TRSEQ,60,TRLOC,Location of the Tumor,BREAST,CRF
1450,CDISCPILOT01,TR,01-701-1111,TRSEQ,61,TRLOC,Location of the Tumor,,CRF
1451,CDISCPILOT01,TR,01-701-1111,TRSEQ,62,TRLOC,Location of the Tumor,,CRF
1452,CDISCPILOT01,TR,01-701-1111,TRSEQ,63,TRLOC,Location of the Tumor,,CRF
1453,CDISCPILOT01,TR,01-701-1115,TRSEQ,1,TRLOC,Location of the Tumor,,CRF
1454,CDISCPILOT01,TR,01-701-1115,TRSEQ,2,TRLOC,Location of the Tumor,,CRF
1455,CDISCPILOT01,TR,01-701-1115,TRSEQ,3,TRLOC,Location of the Tumor,,CRF
1456,CDISCPILOT01,TR,01-701-1115,TRSEQ,4,TRLOC,Location of the Tumor,,CRF
1457,CDISCPILOT01,TR,01-701-1115,TRSEQ,5,TRLOC,Location of the Tumor,,CRF
1458,CDISCPILOT01,TR,01-701-1115,TRSEQ,6,TRLOC,Location of the Tumor,,CRF
1459,CDISCPILOT01,TR,01-701-1115,TRSEQ,7,TRLOC,Location of the Tumor,,CRF
1460,CDISCPILOT01,TR,01-701-1115,TRSEQ,8,TRLOC,Location of the Tumor,,CRF
1461,CDISCPILOT01,TR,01-701-1115,TRSEQ,9,TRLOC,Location of the Tumor,,CRF
1462,CDISCPILOT01,TR,01-701-1115,TRSEQ,10,TRLOC,Location of the Tumor,,CRF
1463,CDISCPILOT01,TR,01-701-1115,TRSEQ,11,TRLOC,Location of the Tumor,,CRF
1464,CDISCPILOT01,TR,01-701-1115,TRSEQ,12,TRLOC,Location of the Tumor,,CRF
1465,CDISCPILOT01,TR,01-701-1115,TRSEQ,13,TRLOC,Location of the Tumor,,CRF
1466,CDISCPILOT01,TR,01-701-1115,TRSEQ,14,TRLOC,Location of the Tumor,,CRF
1467,CDISCPILOT01,TR,01-701-1115,TRSEQ,15,TRLOC,Location of the Tumor,,CRF
1468,CDISCPILOT01,TR,01-701-1115,TRSEQ,16,TRLOC,Location of the Tumor,ABDOMINAL CAVITY,CRF
1469,CDISCPILOT01,TR,01-701-1115,TRSEQ,17,TRLOC,Location of the Tumor,ABDOMINAL CAVITY,CRF
1470,CDISCPILOT01,TR,01-701-1115,TRSEQ,18,TRLOC,Location of the Tumor,ABDOMINAL CAVITY,CRF
1471,CDISCPILOT01,TR,01-701-1115,TRSEQ,19,TRLOC,Location of the Tumor,ADRENAL GLAND,CRF
1472,CDISCPILOT01,TR,01-701-1115,TRSEQ,20,TRLOC,Location of the Tumor,ADRENAL GLAND,CRF
1473,CDISCPILOT01,TR,01-701-1115,TRSEQ,21,TRLOC,Location of the Tumor,ADRENAL GLAND,CRF
1474,CDISCPILOT01,TR,01-701-1115,TRSEQ,22,TRLOC,Location of the Tumor,LYMPH NODE,CRF
1475,CDISCPILOT01,TR,01-701-1115,TRSEQ,23,TRLOC,Location of the Tumor,LYMPH NODE,CRF
1476,CDISCPILOT01,TR,01-701-1115,TRSEQ,24,TRLOC,Location of the Tumor,LYMPH NODE,CRF
1477,CDISCPILOT01,TR,01-701-1115,TRSEQ,25,TRLOC,Location of the Tumor,BLADDER,CRF
1478,CDISCPILOT01,TR,01-701-1115,TRSEQ,26,TRLOC,Location of the Tumor,BLADDER,CRF
1479,CDISCPILOT01,TR,01-701-1115,TRSEQ,27,TRLOC,Location of the Tumor,BLADDER,CRF
1480,CDISCPILOT01,TR,01-701-1115,TRSEQ,28,TRLOC,Location of the Tumor,BODY,CRF
1481,CDISCPILOT01,TR,01-701-1115,TRSEQ,29,TRLOC,Location of the Tumor,BODY,CRF
1482,CDISCPILOT01,TR,01-701-1115,TRSEQ,30,TRLOC,Location of the Tumor,BODY,CRF
1483,CDISCPILOT01,TR,01-701-1115,TRSEQ,31,TRLOC,Location of the Tumor,ABDOMINAL CAVITY,CRF
1484,CDISCPILOT01,TR,01-701-1115,TRSEQ,32,TRLOC,Location of the Tumor,ABDOMINAL CAVITY,CRF
1485,CDISCPILOT01,TR,01-701-1115,TRSEQ,33,TRLOC,Location of the Tumor,ABDOMINAL CAVITY,CRF
1486,CDISCPILOT01,TR,01-701-1115,TRSEQ,34,TRLOC,Location of the Tumor,ADRENAL GLAND,CRF
1487,CDISCPILOT01,TR,01-701-1115,TRSEQ,35,TRLOC,Location of the Tumor,ADRENAL GLAND,CRF
1488,CDISCPILOT01,TR,01-701-1115,TRSEQ,36,TRLOC,Location of the Tumor,ADRENAL GLAND,CRF
1489,CDISCPILOT01,TR,01-701-1115,TRSEQ,37,TRLOC,Location of the Tumor,LYMPH NODE,CRF
1490,CDISCPILOT01,TR,01-701-1115,TRSEQ,38,TRLOC,Location of the Tumor,LYMPH NODE,CRF
1491,CDISCPILOT01,TR,01-701-1115,TRSEQ,39,TRLOC,Location of the Tumor,LYMPH NODE,CRF
1492,CDISCPILOT01,TR,01-701-1115,TRSEQ,40,TRLOC,Location of the Tumor,BLADDER,CRF
1493,CDISCPILOT01,TR,01-701-1115,TRSEQ,41,TRLOC,Location of the Tumor,BLADDER,CRF
1494,CDISCPILOT01,TR,01-701-1115,TRSEQ,42,TRLOC,Location of the Tumor,BLADDER,CRF
1495,CDISCPILOT01,TR,01-701-1115,TRSEQ,43,TRLOC,Location of the Tumor,BODY,CRF
1496,CDISCPILOT01,TR,01-701-1115,TRSEQ,44,TRLOC,Location of the Tumor,BODY,CRF
1497,CDISCPILOT01,TR,01-701-1115,TRSEQ,45,TRLOC,Location of the Tumor,BODY,CRF
1498,CDISCPILOT01,TR,01-701-1115,TRSEQ,46,TRLOC,Location of the Tumor,ABDOMINAL CAVITY,CRF
1499,CDISCPILOT01,TR,01-701-1115,TRSEQ,47,TRLOC,Location of the Tumor,ABDOMINAL CAVITY,CRF
1500,CDISCPILOT01,TR,01-701-1115,TRSEQ,48,TRLOC,Location of the Tumor,ABDOMINAL CAVITY,CRF
1501,CDISCPILOT01,TR,01-701-1115,TRSEQ,49,TRLOC,Location of the Tumor,ADRENAL GLAND,CRF
1502,CDISCPILOT01,TR,01-701-1115,TRSEQ,50,TRLOC,Location of the Tumor,ADRENAL GLAND,CRF
1503,CDISCPILOT01,TR,01-701-1115,TRSEQ,51,TRLOC,Location of the Tumor,ADRENAL GLAND,CRF
1504,CDISCPILOT01,TR,01-701-1115,TRSEQ,52,TRLOC,Location of the Tumor,LYMPH NODE,CRF
1505,CDISCPILOT01,TR,01-701-1115,TRSEQ,53,TRLOC,Location of the Tumor,LYMPH NODE,CRF
1506,CDISCPILOT01,TR,01-701-1115,TRSEQ,54,TRLOC,Location of the Tumor,LYMPH NODE,CRF
1507,CDISCPILOT01,TR,01-701-1115,TRSEQ,55,TRLOC,Location of the Tumor,BLADDER,CRF
1508,CDISCPILOT01,TR,01-701-1115,TRSEQ,56,TRLOC,Location of the Tumor,BLADDER,CRF
1509,CDISCPILOT01,TR,01-701-1115,TRSEQ,57,TRLOC,Location of the Tumor,BLADDER,CRF
1510,CDISCPILOT01,TR,01-701-1115,TRSEQ,58,TRLOC,Location of the Tumor,BODY,CRF
1511,CDISCPILOT01,TR,01-701-1115,TRSEQ,59,TRLOC,Location of the Tumor,BODY,CRF
1512,CDISCPILOT01,TR,01-701-1115,TRSEQ,60,TRLOC,Location of the Tumor,BODY,CRF
1513,CDISCPILOT01,TR,01-701-1115,TRSEQ,61,TRLOC,Location of the Tumor,,CRF
1514,CDISCPILOT01,TR,01-701-1115,TRSEQ,62,TRLOC,Location of the Tumor,,CRF
1515,CDISCPILOT01,TR,01-701-1115,TRSEQ,63,TRLOC,Location of the Tumor,,CRF
1516,CDISCPILOT01,TR,01-701-1115,TRSEQ,64,TRLOC,Location of the Tumor,,CRF
1517,CDISCPILOT01,TR,01-701-1115,TRSEQ,65,TRLOC,Location of the Tumor,,CRF
1518,CDISCPILOT01,TR,01-701-1115,TRSEQ,66,TRLOC,Location of the Tumor,,CRF
1519,CDISCPILOT01,TR,01-701-1115,TRSEQ,67,TRLOC,Location of the Tumor,,CRF
1520,CDISCPILOT01,TR,01-701-1115,TRSEQ,68,TRLOC,Location of the Tumor,,CRF
1521,CDISCPILOT01,TR,01-701-1115,TRSEQ,69,TRLOC,Location of the Tumor,,CRF
1522,CDISCPILOT01,TR,01-701-1115,TRSEQ,70,TRLOC,Location of the Tumor,,CRF
1523,CDISCPILOT01,TR,01-701-1115,TRSEQ,71,TRLOC,Location of the Tumor,,CRF
1524,CDISCPILOT01,TR,01-701-1115,TRSEQ,72,TRLOC,Location of the Tumor,,CRF
1525,CDISCPILOT01,TR,01-701-1115,TRSEQ,73,TRLOC,Location of the Tumor,,CRF
1526,CDISCPILOT01,TR,01-701-1115,TRSEQ,74,TRLOC,Location of the Tumor,,CRF
1527,CDISCPILOT01,TR,01-701-1115,TRSEQ,75,TRLOC,Location of the Tumor,,CRF
1528,CDISCPILOT01,TR,01-701-1115,TRSEQ,76,TRLOC,Location of the Tumor,,CRF
1529,CDISCPILOT01,TR,01-701-1115,TRSEQ,77,TRLOC,Location of the Tumor,,CRF
1530,CDISCPILOT01,TR,01-701-1115,TRSEQ,78,TRLOC,Location of the Tumor,,CRF
1531,CDISCPILOT01,TR,01-701-1115,TRSEQ,79,TRLOC,Location of the Tumor,LYMPH NODE,CRF
1532,CDISCPILOT01,TR,01-701-1115,TRSEQ,80,TRLOC,Location of the Tumor,LYMPH NODE,CRF
1533,CDISCPILOT01,TR,01-701-1115,TRSEQ,81,TRLOC,Location of the Tumor,LYMPH NODE,CRF
1534,CDISCPILOT01,TR,01-701-1115,TRSEQ,82,TRLOC,Location of the Tumor,BLADDER,CRF
1535,CDISCPILOT01,TR,01-701-1115,TRSEQ,83,TRLOC,Location of the Tumor,BLADDER,CRF
1536,CDISCPILOT01,TR,01-701-1115,TRSEQ,84,TRLOC,Location of the Tumor,BLADDER,CRF
1537,CDISCPILOT01,TR,01-701-1115,TRSEQ,85,TRLOC,Location of the Tumor,BODY,CRF
1538,CDISCPILOT01,TR,01-701-1115,TRSEQ,86,TRLOC,Location of the Tumor,BODY,CRF
1539,CDISCPILOT01,TR,01-701-1115,TRSEQ,87,TRLOC,Location of the Tumor,BODY,CRF
1540,CDISCPILOT01,TR,01-701-1115,TRSEQ,88,TRLOC,Location of the Tumor,BONE,CRF
1541,CDISCPILOT01,TR,01-701-1115,TRSEQ,89,TRLOC,Location of the Tumor,BONE,CRF
1542,CDISCPILOT01,TR,01-701-1115,TRSEQ,90,TRLOC,Location of the Tumor,BONE,CRF
1543,CDISCPILOT01,TR,01-701-1115,TRSEQ,91,TRLOC,Location of the Tumor,BREAST,CRF
1544,CDISCPILOT01,TR,01-701-1115,TRSEQ,92,TRLOC,Location of the Tumor,BREAST,CRF
1545,CDISCPILOT01,TR,01-701-1115,TRSEQ,93,TRLOC,Location of the Tumor,BREAST,CRF
1546,CDISCPILOT01,TR,01-701-1115,TRSEQ,94,TRLOC,Location of the Tumor,ADRENAL GLAND,CRF
1547,CDISCPILOT01,TR,01-701-1115,TRSEQ,95,TRLOC,Location of the Tumor,ADRENAL GLAND,CRF
1548,CDISCPILOT01,TR,01-701-1115,TRSEQ,96,TRLOC,Location of the Tumor,ADRENAL GLAND,CRF
1549,CDISCPILOT01,TR,01-701-1115,TRSEQ,97,TRLOC,Location of the Tumor,LYMPH NODE,CRF
1550,CDISCPILOT01,TR,01-701-1115,TRSEQ,98,TRLOC,Location of the Tumor,LYMPH NODE,CRF
1551,CDISCPILOT01,TR,01-701-1115,TRSEQ,99,TRLOC,Location of the Tumor,LYMPH NODE,CRF
1552,CDISCPILOT01,TR,01-701-1115,TRSEQ,100,TRLOC,Location of the Tumor,BLADDER,CRF
1553,CDISCPILOT01,TR,01-701-1115,TRSEQ,101,TRLOC,Location of the Tumor,BLADDER,CRF
1554,CDISCPILOT01,TR,01-701-1115,TRSEQ,102,TRLOC,Location of the Tumor,BLADDER,CRF
1555,CDISCPILOT01,TR,01-701-1115,TRSEQ,103,TRLOC,Location of the Tumor,BODY,CRF
1556,CDISCPILOT01,TR,01-701-1115,TRSEQ,104,TRLOC,Location of the Tumor,BODY,CRF
1557,CDISCPILOT01,TR,01-701-1115,TRSEQ,105,TRLOC,Location of the Tumor,BODY,CRF
1558,CDISCPILOT01,TR,01-701-1115,TRSEQ,106,TRLOC,Location of the Tumor,BONE,CRF
1559,CDISCPILOT01,TR,01-701-1115,TRSEQ,107,TRLOC,Location of the Tumor,BONE,CRF
1560,CDISCPILOT01,TR,01-701-1115,TRSEQ,108,TRLOC,Location of the Tumor,BONE,CRF
1561,CDISCPILOT01,TR,01-701-1115,TRSEQ,109,TRLOC,Location of the Tumor,ADRENAL GLAND,CRF
1562,CDISCPILOT01,TR,01-701-1115,TRSEQ,110,TRLOC,Location of the Tumor,ADRENAL GLAND,CRF
1563,CDISCPILOT01,TR,01-701-1115,TRSEQ,111,TRLOC,Location of the Tumor,ADRENAL GLAND,CRF
1564,CDISCPILOT01,TR,01-701-1115,TRSEQ,112,TRLOC,Location of the Tumor,LYMPH NODE,CRF
1565,CDISCPILOT01,TR,01-701-1115,TRSEQ,113,TRLOC,Location of the Tumor,LYMPH NODE,CRF
1566,CDISCPILOT01,TR,01-701-1115,TRSEQ,114,TRLOC,Location of the Tumor,LYMPH NODE,CRF
1567,CDISCPILOT01,TR,01-701-1115,TRSEQ,115,TRLOC,Location of the Tumor,BLADDER,CRF
1568,CDISCPILOT01,TR,01-701-1115,TRSEQ,116,TRLOC,Location of the Tumor,BLADDER,CRF
1569,CDISCPILOT01,TR,01-701-1115,TRSEQ,117,TRLOC,Location of the Tumor,BLADDER,CRF
1570,CDISCPILOT01,TR,01-701-1115,TRSEQ,118,TRLOC,Location of the Tumor,BODY,CRF
1571,CDISCPILOT01,TR,01-701-1115,TRSEQ,119,TRLOC,Location of the Tumor,BODY,CRF
1572,CDISCPILOT01,TR,01-701-1115,TRSEQ,120,TRLOC,Location of the Tumor,BODY,CRF
1573,CDISCPILOT01,TR,01-701-1115,TRSEQ,121,TRLOC,Location of the Tumor,BONE,CRF
1574,CDISCPILOT01,TR,01-701-1115,TRSEQ,122,TRLOC,Location of the Tumor,BONE,CRF
1575,CDISCPILOT01,TR,01-701-1115,TRSEQ,123,TRLOC,Location of the Tumor,BONE,CRF
1576,CDISCPILOT01,TR,01-701-1115,TRSEQ,124,TRLOC,Location of the Tumor,,CRF
1577,CDISCPILOT01,TR,01-701-1115,TRSEQ,125,TRLOC,Location of the Tumor,,CRF
1578,CDISCPILOT01,TR,01-701-1115,TRSEQ,126,TRLOC,Location of the Tumor,,CRF
1579,CDISCPILOT01,TR,01-701-1118,TRSEQ,1,TRLOC,Location of the Tumor,,CRF
1580,CDISCPILOT01,TR,01-701-1118,TRSEQ,2,TRLOC,Location of the Tumor,,CRF
1581,CDISCPILOT01,TR,01-701-1118,TRSEQ,3,TRLOC,Location of the Tumor,,CRF
1582,CDISCPILOT01,TR,01-701-1118,TRSEQ,4,TRLOC,Location of the Tumor,,CRF
1583,CDISCPILOT01,TR,01-701-1118,TRSEQ,5,TRLOC,Location of the Tumor,,CRF
1584,CDISCPILOT01,TR,01-701-1118,TRSEQ,6,TRLOC,Location of the Tumor,,CRF
1585,CDISCPILOT01,TR,01-701-1118,TRSEQ,7,TRLOC,Location of the Tumor,,CRF
1586,CDISCPILOT01,TR,01-701-1118,TRSEQ,8,TRLOC,Location of the Tumor,,CRF
1587,CDISCPILOT01,TR,01-701-1118,TRSEQ,9,TRLOC,Location of the Tumor,,CRF
1588,CDISCPILOT01,TR,01-701-1118,TRSEQ,10,TRLOC,Location of the Tumor,,CRF
1589,CDISCPILOT01,TR,01-701-1118,TRSEQ,11,TRLOC,Location of the Tumor,,CRF
1590,CDISCPILOT01,TR,01-701-1118,TRSEQ,12,TRLOC,Location of the Tumor,,CRF
1591,CDISCPILOT01,TR,01-701-1118,TRSEQ,13,TRLOC,Location of the Tumor,,CRF
1592,CDISCPILOT01,TR,01-701-1118,TRSEQ,14,TRLOC,Location of the Tumor,,CRF
1593,CDISCPILOT01,TR,01-701-1118,TRSEQ,15,TRLOC,Location of the Tumor,,CRF
1594,CDISCPILOT01,TR,01-701-1118,TRSEQ,16,TRLOC,Location of the Tumor,ABDOMINAL CAVITY,CRF
1595,CDISCPILOT01,TR,01-701-1118,TRSEQ,17,TRLOC,Location of the Tumor,ABDOMINAL CAVITY,CRF
1596,CDISCPILOT01,TR,01-701-1118,TRSEQ,18,TRLOC,Location of the Tumor,ABDOMINAL CAVITY,CRF
1597,CDISCPILOT01,TR,01-701-1118,TRSEQ,19,TRLOC,Location of the Tumor,ADRENAL GLAND,CRF
1598,CDISCPILOT01,TR,01-701-1118,TRSEQ,20,TRLOC,Location of the Tumor,ADRENAL GLAND,CRF
1599,CDISCPILOT01,TR,01-701-1118,TRSEQ,21,TRLOC,Location of the Tumor,ADRENAL GLAND,CRF
1600,CDISCPILOT01,TR,01-701-1118,TRSEQ,22,TRLOC,Location of the Tumor,LYMPH NODE,CRF
1601,CDISCPILOT01,TR,01-701-1118,TRSEQ,23,TRLOC,Location of the Tumor,LYMPH NODE,CRF
1602,CDISCPILOT01,TR,01-701-1118,TRSEQ,24,TRLOC,Location of the Tumor,LYMPH NODE,CRF
1603,CDISCPILOT01,TR,01-701-1118,TRSEQ,25,TRLOC,Location of the Tumor,BLADDER,CRF
1604,CDISCPILOT01,TR,01-701-1118,TRSEQ,26,TRLOC,Location of the Tumor,BLADDER,CRF
1605,CDISCPILOT01,TR,01-701-1118,TRSEQ,27,TRLOC,Location of the Tumor,BLADDER,CRF
1606,CDISCPILOT01,TR,01-701-1118,TRSEQ,28,TRLOC,Location of the Tumor,BODY,CRF
1607,CDISCPILOT01,TR,01-701-1118,TRSEQ,29,TRLOC,Location of the Tumor,BODY,CRF
1608,CDISCPILOT01,TR,01-701-1118,TRSEQ,30,TRLOC,Location of the Tumor,BODY,CRF
1609,CDISCPILOT01,TR,01-701-1118,TRSEQ,31,TRLOC,Location of the Tumor,ADRENAL GLAND,CRF
1610,CDISCPILOT01,TR,01-701-1118,TRSEQ,32,TRLOC,Location of the Tumor,ADRENAL GLAND,CRF
1611,CDISCPILOT01,TR,01-701-1118,TRSEQ,33,TRLOC,Location of the Tumor,ADRENAL GLAND,CRF
1612,CDISCPILOT01,TR,01-701-1118,TRSEQ,34,TRLOC,Location of the Tumor,LYMPH NODE,CRF
1613,CDISCPILOT01,TR,01-701-1118,TRSEQ,35,TRLOC,Location of the Tumor,LYMPH NODE,CRF
1614,CDISCPILOT01,TR,01-701-1118,TRSEQ,36,TRLOC,Location of the Tumor,LYMPH NODE,CRF
1615,CDISCPILOT01,TR,01-701-1118,TRSEQ,37,TRLOC,Location of the Tumor,BLADDER,CRF
1616,CDISCPILOT01,TR,01-701-1118,TRSEQ,38,TRLOC,Location of the Tumor,BLADDER,CRF
1617,CDISCPILOT01,TR,01-701-1118,TRSEQ,39,TRLOC,Location of the Tumor,BLADDER,CRF
1618,CDISCPILOT01,TR,01-701-1118,TRSEQ,40,TRLOC,Location of the Tumor,BODY,CRF
1619,CDISCPILOT01,TR,01-701-1118,TRSEQ,41,TRLOC,Location of the Tumor,BODY,CRF
1620,CDISCPILOT01,TR,01-701-1118,TRSEQ,42,TRLOC,Location of the Tumor,BODY,CRF
1621,CDISCPILOT01,TR,01-701-1118,TRSEQ,43,TRLOC,Location of the Tumor,BONE,CRF
1622,CDISCPILOT01,TR,01-701-1118,TRSEQ,44,TRLOC,Location of the Tumor,BONE,CRF
1623,CDISCPILOT01,TR,01-701-1118,TRSEQ,45,TRLOC,Location of the Tumor,BONE,CRF
1624,CDISCPILOT01,TR,01-701-1118,TRSEQ,46,TRLOC,Location of the Tumor,ADRENAL GLAND,CRF
1625,CDISCPILOT01,TR,01-701-1118,TRSEQ,47,TRLOC,Location of the Tumor,ADRENAL GLAND,CRF
1626,CDISCPILOT01,TR,01-701-1118,TRSEQ,48,TRLOC,Location of the Tumor,ADRENAL GLAND,CRF
1627,CDISCPILOT01,TR,01-701-1118,TRSEQ,49,TRLOC,Location of the Tumor,LYMPH NODE,CRF
1628,CDISCPILOT01,TR,01-701-1118,TRSEQ,50,TRLOC,Location of the Tumor,LYMPH NODE,CRF
1629,CDISCPILOT01,TR,01-701-1118,TRSEQ,51,TRLOC,Location of the Tumor,LYMPH NODE,CRF
1630,CDISCPILOT01,TR,01-701-1118,TRSEQ,52,TRLOC,Location of the Tumor,BLADDER,CRF
1631,CDISCPILOT01,TR,01-701-1118,TRSEQ,53,TRLOC,Location of the Tumor,BLADDER,CRF
1632,CDISCPILOT01,TR,01-701-1118,TRSEQ,54,TRLOC,Location of the Tumor,BLADDER,CRF
1633,CDISCPILOT01,TR,01-701-1118,TRSEQ,55,TRLOC,Location of the Tumor,BODY,CRF
1634,CDISCPILOT01,TR,01-701-1118,TRSEQ,56,TRLOC,Location of the Tumor,BODY,CRF
1635,CDISCPILOT01,TR,01-701-1118,TRSEQ,57,TRLOC,Location of the Tumor,BODY,CRF
1636,CDISCPILOT01,TR,01-701-1118,TRSEQ,58,TRLOC,Location of the Tumor,BONE,CRF
1637,CDISCPILOT01,TR,01-701-1118,TRSEQ,59,TRLOC,Location of the Tumor,BONE,CRF
1638,CDISCPILOT01,TR,01-701-1118,TRSEQ,60,TRLOC,Location of the Tumor,BONE,CRF
1639,CDISCPILOT01,TR,01-701-1118,TRSEQ,61,TRLOC,Location of the Tumor,,CRF
1640,CDISCPILOT01,TR,01-701-1118,TRSEQ,62,TRLOC,Location of the Tumor,,CRF
1641,CDISCPILOT01,TR,01-701-1118,TRSEQ,63,TRLOC,Location of the Tumor,,CRF
1642,CDISCPILOT01,TR,01-701-1118,TRSEQ,64,TRLOC,Location of the Tumor,,CRF
1643,CDISCPILOT01,TR,01-701-1118,TRSEQ,65,TRLOC,Location of the Tumor,,CRF
1644,CDISCPILOT01,TR,01-701-1118,TRSEQ,66,TRLOC,Location of the Tumor,,CRF
1645,CDISCPILOT01,TR,01-701-1118,TRSEQ,67,TRLOC,Location of the Tumor,,CRF
1646,CDISCPILOT01,TR,01-701-1118,TRSEQ,68,TRLOC,Location of the Tumor,,CRF
1647,CDISCPILOT01,TR,01-701-1118,TRSEQ,69,TRLOC,Location of the Tumor,,CRF
1648,CDISCPILOT01,TR,01-701-1118,TRSEQ,70,TRLOC,Location of the Tumor,,CRF
1649,CDISCPILOT01,TR,01-701-1118,TRSEQ,71,TRLOC,Location of the Tumor,,CRF
1650,CDISCPILOT01,TR,01-701-1118,TRSEQ,72,TRLOC,Location of the Tumor,,CRF
1651,CDISCPILOT01,TR,01-701-1118,TRSEQ,73,TRLOC,Location of the Tumor,,CRF
1652,CDISCPILOT01,TR,01-701-1118,TRSEQ,74,TRLOC,Location of the Tumor,,CRF
1653,CDISCPILOT01,TR,01-701-1118,TRSEQ,75,TRLOC,Location of the Tumor,,CRF
1654,CDISCPILOT01,TR,01-701-1118,TRSEQ,76,TRLOC,Location of the Tumor,,CRF
1655,CDISCPILOT01,TR,01-701-1118,TRSEQ,77,TRLOC,Location of the Tumor,,CRF
1656,CDISCPILOT01,TR,01-701-1118,TRSEQ,78,TRLOC,Location of the Tumor,,CRF
1657,CDISCPILOT01,TR,01-701-1118,TRSEQ,79,TRLOC,Location of the Tumor,BLADDER,CRF
1658,CDISCPILOT01,TR,01-701-1118,TRSEQ,80,TRLOC,Location of the Tumor,BLADDER,CRF
1659,CDISCPILOT01,TR,01-701-1118,TRSEQ,81,TRLOC,Location of the Tumor,BLADDER,CRF
1660,CDISCPILOT01,TR,01-701-1118,TRSEQ,82,TRLOC,Location of the Tumor,BODY,CRF
1661,CDISCPILOT01,TR,01-701-1118,TRSEQ,83,TRLOC,Location of the Tumor,BODY,CRF
1662,CDISCPILOT01,TR,01-701-1118,TRSEQ,84,TRLOC,Location of the Tumor,BODY,CRF
1663,CDISCPILOT01,TR,01-701-1118,TRSEQ,85,TRLOC,Location of the Tumor,BONE,CRF
1664,CDISCPILOT01,TR,01-701-1118,TRSEQ,86,TRLOC,Location of the Tumor,BONE,CRF
1665,CDISCPILOT01,TR,01-701-1118,TRSEQ,87,TRLOC,Location of the Tumor,BONE,CRF
1666,CDISCPILOT01,TR,01-701-1118,TRSEQ,88,TRLOC,Location of the Tumor,BREAST,CRF
1667,CDISCPILOT01,TR,01-701-1118,TRSEQ,89,TRLOC,Location of the Tumor,BREAST,CRF
1668,CDISCPILOT01,TR,01-701-1118,TRSEQ,90,TRLOC,Location of the Tumor,BREAST,CRF
1669,CDISCPILOT01,TR,01-701-1118,TRSEQ,91,TRLOC,Location of the Tumor,CHEST,CRF
1670,CDISCPILOT01,TR,01-701-1118,TRSEQ,92,TRLOC,Location of the Tumor,CHEST,CRF
1671,CDISCPILOT01,TR,01-701-1118,TRSEQ,93,TRLOC,Location of the Tumor,CHEST,CRF
1672,CDISCPILOT01,TR,01-701-1118,TRSEQ,94,TRLOC,Location of the Tumor,ADRENAL GLAND,CRF
1673,CDISCPILOT01,TR,01-701-1118,TRSEQ,95,TRLOC,Location of the Tumor,ADRENAL GLAND,CRF
1674,CDISCPILOT01,TR,01-701-1118,TRSEQ,96,TRLOC,Location of the Tumor,ADRENAL GLAND,CRF
1675,CDISCPILOT01,TR,01-701-1118,TRSEQ,97,TRLOC,Location of the Tumor,LYMPH NODE,CRF
1676,CDISCPILOT01,TR,01-701-1118,TRSEQ,98,TRLOC,Location of the Tumor,LYMPH NODE,CRF
1677,CDISCPILOT01,TR,01-701-1118,TRSEQ,99,TRLOC,Location of the Tumor,LYMPH NODE,CRF
1678,CDISCPILOT01,TR,01-701-1118,TRSEQ,100,TRLOC,Location of the Tumor,BLADDER,CRF
1679,CDISCPILOT01,TR,01-701-1118,TRSEQ,101,TRLOC,Location of the Tumor,BLADDER,CRF
1680,CDISCPILOT01,TR,01-701-1118,TRSEQ,102,TRLOC,Location of the Tumor,BLADDER,CRF
1681,CDISCPILOT01,TR,01-701-1118,TRSEQ,103,TRLOC,Location of the Tumor,BODY,CRF
1682,CDISCPILOT01,TR,01-701-1118,TRSEQ,104,TRLOC,Location of the Tumor,BODY,CRF
1683,CDISCPILOT01,TR,01-701-1118,TRSEQ,105,TRLOC,Location of the Tumor,BODY,CRF
1684,CDISCPILOT01,TR,01-701-1118,TRSEQ,106,TRLOC,Location of the Tumor,BONE,CRF
1685,CDISCPILOT01,TR,01-701-1118,TRSEQ,107,TRLOC,Location of the Tumor,BONE,CRF
1686,CDISCPILOT01,TR,01-701-1118,TRSEQ,108,TRLOC,Location of the Tumor,BONE,CRF
1687,CDISCPILOT01,TR,01-701-1118,TRSEQ,109,TRLOC,Location of the Tumor,ABDOMINAL CAVITY,CRF
1688,CDISCPILOT01,TR,01-701-1118,TRSEQ,110,TRLOC,Location of the Tumor,ABDOMINAL CAVITY,CRF
1689,CDISCPILOT01,TR,01-701-1118,TRSEQ,111,TRLOC,Location of the Tumor,ABDOMINAL CAVITY,CRF
1690,CDISCPILOT01,TR,01-701-1118,TRSEQ,112,TRLOC,Location of the Tumor,ADRENAL GLAND,CRF
1691,CDISCPILOT01,TR,01-701-1118,TRSEQ,113,TRLOC,Location of the Tumor,ADRENAL GLAND,CRF
1692,CDISCPILOT01,TR,01-701-1118,TRSEQ,114,TRLOC,Location of the Tumor,ADRENAL GLAND,CRF
1693,CDISCPILOT01,TR,01-701-1118,TRSEQ,115,TRLOC,Location of the Tumor,LYMPH NODE,CRF
1694,CDISCPILOT01,TR,01-701-1118,TRSEQ,116,TRLOC,Location of the Tumor,LYMPH NODE,CRF
1695,CDISCPILOT01,TR,01-701-1118,TRSEQ,117,TRLOC,Location of the Tumor,LYMPH NODE,CRF
1696,CDISCPILOT01,TR,01-701-1118,TRSEQ,118,TRLOC,Location of the Tumor,BLADDER,CRF
1697,CDISCPILOT01,TR,01-701-1118,TRSEQ,119,TRLOC,Location of the Tumor,BLADDER,CRF
1698,CDISCPILOT01,TR,01-701-1118,TRSEQ,120,TRLOC,Location of the Tumor,BLADDER,CRF
1699,CDISCPILOT01,TR,01-701-1118,TRSEQ,121,TRLOC,Location of the Tumor,BODY,CRF
1700,CDISCPILOT01,TR,01-701-1118,TRSEQ,122,TRLOC,Location of the Tumor,BODY,CRF
1701,CDISCPILOT01,TR,01-701-1118,TRSEQ,123,TRLOC,Location of the Tumor,BODY,CRF
1702,CDISCPILOT01,TR,01-701-1118,TRSEQ,124,TRLOC,Location of the Tumor,,CRF
1703,CDISCPILOT01,TR,01-701-1118,TRSEQ,125,TRLOC,Location of the Tumor,,CRF
1704,CDISCPILOT01,TR,01-701-1118,TRSEQ,126,TRLOC,Location of the Tumor,,CRF
1705,CDISCPILOT01,TR,01-701-1118,TRSEQ,127,TRLOC,Location of the Tumor,,CRF
1706,CDISCPILOT01,TR,01-701-1118,TRSEQ,128,TRLOC,Location of the Tumor,,CRF
1707,CDISCPILOT01,TR,01-701-1118,TRSEQ,129,TRLOC,Location of the Tumor,,CRF
1708,CDISCPILOT01,TR,01-701-1118,TRSEQ,130,TRLOC,Location of the Tumor,,CRF
1709,CDISCPILOT01,TR,01-701-1118,TRSEQ,131,TRLOC,Location of the Tumor,,CRF
1710,CDISCPILOT01,TR,01-701-1118,TRSEQ,132,TRLOC,Location of the Tumor,,CRF
1711,CDISCPILOT01,TR,01-701-1118,TRSEQ,133,TRLOC,Location of the Tumor,,CRF
1712,CDISCPILOT01,TR,01-701-1118,TRSEQ,134,TRLOC,Location of the Tumor,,CRF
1713,CDISCPILOT01,TR,01-701-1118,TRSEQ,135,TRLOC,Location of the Tumor,,CRF
1714,CDISCPILOT01,TR,01-701-1118,TRSEQ,136,TRLOC,Location of the Tumor,,CRF
1715,CDISCPILOT01,TR,01-701-1118,TRSEQ,137,TRLOC,Location of the Tumor,,CRF
1716,CDISCPILOT01,TR,01-701-1118,TRSEQ,138,TRLOC,Location of the Tumor,,CRF
1717,CDISCPILOT01,TR,01-701-1118,TRSEQ,139,TRLOC,Location of the Tumor,,CRF
1718,CDISCPILOT01,TR,01-701-1118,TRSEQ,140,TRLOC,Location of the Tumor,,CRF
1719,CDISCPILOT01,TR,01-701-1118,TRSEQ,141,TRLOC,Location of the Tumor,,CRF
1720,CDISCPILOT01,TR,01-701-1118,TRSEQ,142,TRLOC,Location of the Tumor,BLADDER,CRF
1721,CDISCPILOT01,TR,01-701-1118,TRSEQ,143,TRLOC,Location of the Tumor,BLADDER,CRF
1722,CDISCPILOT01,TR,01-701-1118,TRSEQ,144,TRLOC,Location of the Tumor,BLADDER,CRF
1723,CDISCPILOT01,TR,01-701-1118,TRSEQ,145,TRLOC,Location of the Tumor,BODY,CRF
1724,CDISCPILOT01,TR,01-701-1118,TRSEQ,146,TRLOC,Location of the Tumor,BODY,CRF
1725,CDISCPILOT01,TR,01-701-1118,TRSEQ,147,TRLOC,Location of the Tumor,BODY,CRF
1726,CDISCPILOT01,TR,01-701-1118,TRSEQ,148,TRLOC,Location of the Tumor,BONE,CRF
1727,CDISCPILOT01,TR,01-701-1118,TRSEQ,149,TRLOC,Location of the Tumor,BONE,CRF
1728,CDISCPILOT01,TR,01-701-1118,TRSEQ,150,TRLOC,Location of the Tumor,BONE,CRF
1729,CDISCPILOT01,TR,01-701-1118,TRSEQ,151,TRLOC,Location of the Tumor,BREAST,CRF
1730,CDISCPILOT01,TR,01-701-1118,TRSEQ,152,TRLOC,Location of the Tumor,BREAST,CRF
1731,CDISCPILOT01,TR,01-701-1118,TRSEQ,153,TRLOC,Location of the Tumor,BREAST,CRF
1732,CDISCPILOT01,TR,01-701-1118,TRSEQ,154,TRLOC,Location of the Tumor,CHEST,CRF
1733,CDISCPILOT01,TR,01-701-1118,TRSEQ,155,TRLOC,Location of the Tumor,CHEST,CRF
1734,CDISCPILOT01,TR,01-701-1118,TRSEQ,156,TRLOC,Location of the Tumor,CHEST,CRF
1735,CDISCPILOT01,TR,01-701-1118,TRSEQ,157,TRLOC,Location of the Tumor,ABDOMINAL CAVITY,CRF
1736,CDISCPILOT01,TR,01-701-1118,TRSEQ,158,TRLOC,Location of the Tumor,ABDOMINAL CAVITY,CRF
1737,CDISCPILOT01,TR,01-701-1118,TRSEQ,159,TRLOC,Location of the Tumor,ABDOMINAL CAVITY,CRF
1738,CDISCPILOT01,TR,01-701-1118,TRSEQ,160,TRLOC,Location of the Tumor,ADRENAL GLAND,CRF
1739,CDISCPILOT01,TR,01-701-1118,TRSEQ,161,TRLOC,Location of the Tumor,ADRENAL GLAND,CRF
1740,CDISCPILOT01,TR,01-701-1118,TRSEQ,162,TRLOC,Location of the Tumor,ADRENAL GLAND,CRF
1741,CDISCPILOT01,TR,01-701-1118,TRSEQ,163,TRLOC,Location of the Tumor,LYMPH NODE,CRF
1742,CDISCPILOT01,TR,01-701-1118,TRSEQ,164,TRLOC,Location of the Tumor,LYMPH NODE,CRF
1743,CDISCPILOT01,TR,01-701-1118,TRSEQ,165,TRLOC,Location of the Tumor,LYMPH NODE,CRF
1744,CDISCPILOT01,TR,01-701-1118,TRSEQ,166,TRLOC,Location of the Tumor,BLADDER,CRF
1745,CDISCPILOT01,TR,01-701-1118,TRSEQ,167,TRLOC,Location of the Tumor,BLADDER,CRF
1746,CDISCPILOT01,TR,01-701-1118,TRSEQ,168,TRLOC,Location of the Tumor,BLADDER,CRF
1747,CDISCPILOT01,TR,01-701-1118,TRSEQ,169,TRLOC,Location of the Tumor,BODY,CRF
1748,CDISCPILOT01,TR,01-701-1118,TRSEQ,170,TRLOC,Location of the Tumor,BODY,CRF
1749,CDISCPILOT01,TR,01-701-1118,TRSEQ,171,TRLOC,Location of the Tumor,BODY,CRF
1750,CDISCPILOT01,TR,01-701-1118,TRSEQ,172,TRLOC,Location of the Tumor,ADRENAL GLAND,CRF
1751,CDISCPILOT01,TR,01-701-1118,TRSEQ,173,TRLOC,Location of the Tumor,ADRENAL GLAND,CRF
1752,CDISCPILOT01,TR,01-701-1118,TRSEQ,174,TRLOC,Location of the Tumor,ADRENAL GLAND,CRF
1753,CDISCPILOT01,TR,01-701-1118,TRSEQ,175,TRLOC,Location of the Tumor,LYMPH NODE,CRF
1754,CDISCPILOT01,TR,01-701-1118,TRSEQ,176,TRLOC,Location of the Tumor,LYMPH NODE,CRF
1755,CDISCPILOT01,TR,01-701-1118,TRSEQ,177,TRLOC,Location of the Tumor,LYMPH NODE,CRF
1756,CDISCPILOT01,TR,01-701-1118,TRSEQ,178,TRLOC,Location of the Tumor,BLADDER,CRF
1757,CDISCPILOT01,TR,01-701-1118,TRSEQ,179,TRLOC,Location of the Tumor,BLADDER,CRF
1758,CDISCPILOT01,TR,01-701-1118,TRSEQ,180,TRLOC,Location of the Tumor,BLADDER,CRF
1759,CDISCPILOT01,TR,01-701-1118,TRSEQ,181,TRLOC,Location of the Tumor,BODY,CRF
1760,CDISCPILOT01,TR,01-701-1118,TRSEQ,182,TRLOC,Location of the Tumor,BODY,CRF
1761,CDISCPILOT01,TR,01-701-1118,TRSEQ,183,TRLOC,Location of the Tumor,BODY,CRF
1762,CDISCPILOT01,TR,01-701-1118,TRSEQ,184,TRLOC,Location of the Tumor,BONE,CRF
1763,CDISCPILOT01,TR,01-701-1118,TRSEQ,185,TRLOC,Location of the Tumor,BONE,CRF
1764,CDISCPILOT01,TR,01-701-1118,TRSEQ,186,TRLOC,Location of the Tumor,BONE,CRF
1765,CDISCPILOT01,TR,01-701-1118,TRSEQ,187,TRLOC,Location of the Tumor,,CRF
1766,CDISCPILOT01,TR,01-701-1118,TRSEQ,188,TRLOC,Location of the Tumor,,CRF
1767,CDISCPILOT01,TR,01-701-1118,TRSEQ,189,TRLOC,Location of the Tumor,,CRF
1768,CDISCPILOT01,TR,01-701-1118,TRSEQ,190,TRLOC,Location of the Tumor,,CRF
1769,CDISCPILOT01,TR,01-701-1118,TRSEQ,191,TRLOC,Location of the Tumor,,CRF
1770,CDISCPILOT01,TR,01-701-1118,TRSEQ,192,TRLOC,Location of the Tumor,,CRF
1771,CDISCPILOT01,TR,01-701-1118,TRSEQ,193,TRLOC,Location of the Tumor,,CRF
1772,CDISCPILOT01,TR,01-701-1118,TRSEQ,194,TRLOC,Location of the Tumor,,CRF
1773,CDISCPILOT01,TR,01-701-1118,TRSEQ,195,TRLOC,Location of the Tumor,,CRF
1774,CDISCPILOT01,TR,01-701-1118,TRSEQ,196,TRLOC,Location of the Tumor,,CRF
1775,CDISCPILOT01,TR,01-701-1118,TRSEQ,197,TRLOC,Location of the Tumor,,CRF
1776,CDISCPILOT01,TR,01-701-1118,TRSEQ,198,TRLOC,Location of the Tumor,,CRF
1777,CDISCPILOT01,TR,01-701-1118,TRSEQ,199,TRLOC,Location of the Tumor,,CRF
1778,CDISCPILOT01,TR,01-701-1118,TRSEQ,200,TRLOC,Location of the Tumor,,CRF
1779,CDISCPILOT01,TR,01-701-1118,TRSEQ,201,TRLOC,Location of the Tumor,,CRF
1780,CDISCPILOT01,TR,01-701-1118,TRSEQ,202,TRLOC,Location of the Tumor,,CRF
1781,CDISCPILOT01,TR,01-701-1118,TRSEQ,203,TRLOC,Location of the Tumor,,CRF
1782,CDISCPILOT01,TR,01-701-1118,TRSEQ,204,TRLOC,Location of the Tumor,,CRF
1783,CDISCPILOT01,TR,01-701-1118,TRSEQ,205,TRLOC,Location of the Tumor,ABDOMINAL CAVITY,CRF
1784,CDISCPILOT01,TR,01-701-1118,TRSEQ,206,TRLOC,Location of the Tumor,ABDOMINAL CAVITY,CRF
1785,CDISCPILOT01,TR,01-701-1118,TRSEQ,207,TRLOC,Location of the Tumor,ABDOMINAL CAVITY,CRF
1786,CDISCPILOT01,TR,01-701-1118,TRSEQ,208,TRLOC,Location of the Tumor,ADRENAL GLAND,CRF
1787,CDISCPILOT01,TR,01-701-1118,TRSEQ,209,TRLOC,Location of the Tumor,ADRENAL GLAND,CRF
1788,CDISCPILOT01,TR,01-701-1118,TRSEQ,210,TRLOC,Location of the Tumor,ADRENAL GLAND,CRF
1789,CDISCPILOT01,TR,01-701-1118,TRSEQ,211,TRLOC,Location of the Tumor,LYMPH NODE,CRF
1790,CDISCPILOT01,TR,01-701-1118,TRSEQ,212,TRLOC,Location of the Tumor,LYMPH NODE,CRF
1791,CDISCPILOT01,TR,01-701-1118,TRSEQ,213,TRLOC,Location of the Tumor,LYMPH NODE,CRF
1792,CDISCPILOT01,TR,01-701-1118,TRSEQ,214,TRLOC,Location of the Tumor,BLADDER,CRF
1793,CDISCPILOT01,TR,01-701-1118,TRSEQ,215,TRLOC,Location of the Tumor,BLADDER,CRF
1794,CDISCPILOT01,TR,01-701-1118,TRSEQ,216,TRLOC,Location of the Tumor,BLADDER,CRF
1795,CDISCPILOT01,TR,01-701-1118,TRSEQ,217,TRLOC,Location of the Tumor,BODY,CRF
1796,CDISCPILOT01,TR,01-701-1118,TRSEQ,218,TRLOC,Location of the Tumor,BODY,CRF
1797,CDISCPILOT01,TR,01-701-1118,TRSEQ,219,TRLOC,Location of the Tumor,BODY,CRF
1798,CDISCPILOT01,TR,01-701-1118,TRSEQ,220,TRLOC,Location of the Tumor,LYMPH NODE,CRF
1799,CDISCPILOT01,TR,01-701-1118,TRSEQ,221,TRLOC,Location of the Tumor,LYMPH NODE,CRF
1800,CDISCPILOT01,TR,01-701-1118,TRSEQ,222,TRLOC,Location of the Tumor,LYMPH NODE,CRF
1801,CDISCPILOT01,TR,01-701-1118,TRSEQ,223,TRLOC,Location of the Tumor,BLADDER,CRF
1802,CDISCPILOT01,TR,01-701-1118,TRSEQ,224,TRLOC,Location of the Tumor,BLADDER,CRF
1803,CDISCPILOT01,TR,01-701-1118,TRSEQ,225,TRLOC,Location of the Tumor,BLADDER,CRF
1804,CDISCPILOT01,TR,01-701-1118,TRSEQ,226,TRLOC,Location of the Tumor,BODY,CRF
1805,CDISCPILOT01,TR,01-701-1118,TRSEQ,227,TRLOC,Location of the Tumor,BODY,CRF
1806,CDISCPILOT01,TR,01-701-1118,TRSEQ,228,TRLOC,Location of the Tumor,BODY,CRF
1807,CDISCPILOT01,TR,01-701-1118,TRSEQ,229,TRLOC,Location of the Tumor,BONE,CRF
1808,CDISCPILOT01,TR,01-701-1118,TRSEQ,230,TRLOC,Location of the Tumor,BONE,CRF
1809,CDISCPILOT01,TR,01-701-1118,TRSEQ,231,TRLOC,Location of the Tumor,BONE,CRF
1810,CDISCPILOT01,TR,01-701-1118,TRSEQ,232,TRLOC,Location of the Tumor,BREAST,CRF
1811,CDISCPILOT01,TR,01-701-1118,TRSEQ,233,TRLOC,Location of the Tumor,BREAST,CRF
1812,CDISCPILOT01,TR,01-701-1118,TRSEQ,234,TRLOC,Location of the Tumor,BREAST,CRF
1813,CDISCPILOT01,TR,01-701-1118,TRSEQ,235,TRLOC,Location of the Tumor,BLADDER,CRF
1814,CDISCPILOT01,TR,01-701-1118,TRSEQ,236,TRLOC,Location of the Tumor,BLADDER,CRF
1815,CDISCPILOT01,TR,01-701-1118,TRSEQ,237,TRLOC,Location of the Tumor,BLADDER,CRF
1816,CDISCPILOT01,TR,01-701-1118,TRSEQ,238,TRLOC,Location of the Tumor,BODY,CRF
1817,CDISCPILOT01,TR,01-701-1118,TRSEQ,239,TRLOC,Location of the Tumor,BODY,CRF
1818,CDISCPILOT01,TR,01-701-1118,TRSEQ,240,TRLOC,Location of the Tumor,BODY,CRF
1819,CDISCPILOT01,TR,01-701-1118,TRSEQ,241,TRLOC,Location of the Tumor,BONE,CRF
1820,CDISCPILOT01,TR,01-701-1118,TRSEQ,242,TRLOC,Location of the Tumor,BONE,CRF
1821,CDISCPILOT01,TR,01-701-1118,TRSEQ,243,TRLOC,Location of the Tumor,BONE,CRF
1822,CDISCPILOT01,TR,01-701-1118,TRSEQ,244,TRLOC,Location of the Tumor,BREAST,CRF
1823,CDISCPILOT01,TR,01-701-1118,TRSEQ,245,TRLOC,Location of the Tumor,BREAST,CRF
1824,CDISCPILOT01,TR,01-701-1118,TRSEQ,246,TRLOC,Location of the Tumor,BREAST,CRF
1825,CDISCPILOT01,TR,01-701-1118,TRSEQ,247,TRLOC,Location of the Tumor,CHEST,CRF
1826,CDISCPILOT01,TR,01-701-1118,TRSEQ,248,TRLOC,Location of the Tumor,CHEST,CRF
1827,CDISCPILOT01,TR,01-701-1118,TRSEQ,249,TRLOC,Location of the Tumor,CHEST,CRF
1828,CDISCPILOT01,TR,01-701-1118,TRSEQ,250,TRLOC,Location of the Tumor,,CRF
1829,CDISCPILOT01,TR,01-701-1118,TRSEQ,251,TRLOC,Location of the Tumor,,CRF
1830,CDISCPILOT01,TR,01-701-1118,TRSEQ,252,TRLOC,Location of the Tumor,,CRF
1831,CDISCPILOT01,TR,01-701-1118,TRSEQ,253,TRLOC,Location of the Tumor,,CRF
1832,CDISCPILOT01,TR,01-701-1118,TRSEQ,254,TRLOC,Location of the Tumor,,CRF
1833,CDISCPILOT01,TR,01-701-1118,TRSEQ,255,TRLOC,Location of the Tumor,,CRF
1834,CDISCPILOT01,TR,01-701-1118,TRSEQ,256,TRLOC,Location of the Tumor,,CRF
1835,CDISCPILOT01,TR,01-701-1118,TRSEQ,257,TRLOC,Location of the Tumor,,CRF
1836,CDISCPILOT01,TR,01-701-1118,TRSEQ,258,TRLOC,Location of the Tumor,,CRF
1837,CDISCPILOT01,TR,01-701-1118,TRSEQ,259,TRLOC,Location of the Tumor,,CRF
1838,CDISCPILOT01,TR,01-701-1118,TRSEQ,260,TRLOC,Location of the Tumor,,CRF
1839,CDISCPILOT01,TR,01-701-1118,TRSEQ,261,TRLOC,Location of the Tumor,,CRF
1840,CDISCPILOT01,TR,01-701-1118,TRSEQ,262,TRLOC,Location of the Tumor,,CRF
1841,CDISCPILOT01,TR,01-701-1118,TRSEQ,263,TRLOC,Location of the Tumor,,CRF
1842,CDISCPILOT01,TR,01-701-1118,TRSEQ,264,TRLOC,Location of the Tumor,,CRF
1843,CDISCPILOT01,TR,01-701-1118,TRSEQ,265,TRLOC,Location of the Tumor,,CRF
1844,CDISCPILOT01,TR,01-701-1118,TRSEQ,266,TRLOC,Location of the Tumor,,CRF
1845,CDISCPILOT01,TR,01-701-1118,TRSEQ,267,TRLOC,Location of the Tumor,,CRF
1846,CDISCPILOT01,TR,01-701-1118,TRSEQ,268,TRLOC,Location of the Tumor,LYMPH NODE,CRF
1847,CDISCPILOT01,TR,01-701-1118,TRSEQ,269,TRLOC,Location of the Tumor,LYMPH NODE,CRF
1848,CDISCPILOT01,TR,01-701-1118,TRSEQ,270,TRLOC,Location of the Tumor,LYMPH NODE,CRF
1849,CDISCPILOT01,TR,01-701-1118,TRSEQ,271,TRLOC,Location of the Tumor,BLADDER,CRF
1850,CDISCPILOT01,TR,01-701-1118,TRSEQ,272,TRLOC,Location of the Tumor,BLADDER,CRF
1851,CDISCPILOT01,TR,01-701-1118,TRSEQ,273,TRLOC,Location of the Tumor,BLADDER,CRF
1852,CDISCPILOT01,TR,01-701-1118,TRSEQ,274,TRLOC,Location of the Tumor,BODY,CRF
1853,CDISCPILOT01,TR,01-701-1118,TRSEQ,275,TRLOC,Location of the Tumor,BODY,CRF
1854,CDISCPILOT01,TR,01-701-1118,TRSEQ,276,TRLOC,Location of the Tumor,BODY,CRF
1855,CDISCPILOT01,TR,01-701-1118,TRSEQ,277,TRLOC,Location of the Tumor,BONE,CRF
1856,CDISCPILOT01,TR,01-701-1118,TRSEQ,278,TRLOC,Location of the Tumor,BONE,CRF
1857,CDISCPILOT01,TR,01-701-1118,TRSEQ,279,TRLOC,Location of the Tumor,BONE,CRF
1858,CDISCPILOT01,TR,01-701-1118,TRSEQ,280,TRLOC,Location of the Tumor,BREAST,CRF
1859,CDISCPILOT01,TR,01-701-1118,TRSEQ,281,TRLOC,Location of the Tumor,BREAST,CRF
1860,CDISCPILOT01,TR,01-701-1118,TRSEQ,282,TRLOC,Location of the Tumor,BREAST,CRF
1861,CDISCPILOT01,TR,01-701-1118,TRSEQ,283,TRLOC,Location of the Tumor,ABDOMINAL CAVITY,CRF
1862,CDISCPILOT01,TR,01-701-1118,TRSEQ,284,TRLOC,Location of the Tumor,ABDOMINAL CAVITY,CRF
1863,CDISCPILOT01,TR,01-701-1118,TRSEQ,285,TRLOC,Location of the Tumor,ABDOMINAL CAVITY,CRF
1864,CDISCPILOT01,TR,01-701-1118,TRSEQ,286,TRLOC,Location of the Tumor,ADRENAL GLAND,CRF
1865,CDISCPILOT01,TR,01-701-1118,TRSEQ,287,TRLOC,Location of the Tumor,ADRENAL GLAND,CRF
1866,CDISCPILOT01,TR,01-701-1118,TRSEQ,288,TRLOC,Location of the Tumor,ADRENAL GLAND,CRF
1867,CDISCPILOT01,TR,01-701-1118,TRSEQ,289,TRLOC,Location of the Tumor,LYMPH NODE,CRF
1868,CDISCPILOT01,TR,01-701-1118,TRSEQ,290,TRLOC,Location of the Tumor,LYMPH NODE,CRF
1869,CDISCPILOT01,TR,01-701-1118,TRSEQ,291,TRLOC,Location of the Tumor,LYMPH NODE,CRF
1870,CDISCPILOT01,TR,01-701-1118,TRSEQ,292,TRLOC,Location of the Tumor,BLADDER,CRF
1871,CDISCPILOT01,TR,01-701-1118,TRSEQ,293,TRLOC,Location of the Tumor,BLADDER,CRF
1872,CDISCPILOT01,TR,01-701-1118,TRSEQ,294,TRLOC,Location of the Tumor,BLADDER,CRF
1873,CDISCPILOT01,TR,01-701-1118,TRSEQ,295,TRLOC,Location of the Tumor,BODY,CRF
1874,CDISCPILOT01,TR,01-701-1118,TRSEQ,296,TRLOC,Location of the Tumor,BODY,CRF
1875,CDISCPILOT01,TR,01-701-1118,TRSEQ,297,TRLOC,Location of the Tumor,BODY,CRF
1876,CDISCPILOT01,TR,01-701-1118,TRSEQ,298,TRLOC,Location of the Tumor,ADRENAL GLAND,CRF
1877,CDISCPILOT01,TR,01-701-1118,TRSEQ,299,TRLOC,Location of the Tumor,ADRENAL GLAND,CRF
1878,CDISCPILOT01,TR,01-701-1118,TRSEQ,300,TRLOC,Location of the Tumor,ADRENAL GLAND,CRF
1879,CDISCPILOT01,TR,01-701-1118,TRSEQ,301,TRLOC,Location of the Tumor,LYMPH NODE,CRF
1880,CDISCPILOT01,TR,01-701-1118,TRSEQ,302,TRLOC,Location of the Tumor,LYMPH NODE,CRF
1881,CDISCPILOT01,TR,01-701-1118,TRSEQ,303,TRLOC,Location of the Tumor,LYMPH NODE,CRF
1882,CDISCPILOT01,TR,01-701-1118,TRSEQ,304,TRLOC,Location of the Tumor,BLADDER,CRF
1883,CDISCPILOT01,TR,01-701-1118,TRSEQ,305,TRLOC,Location of the Tumor,BLADDER,CRF
1884,CDISCPILOT01,TR,01-701-1118,TRSEQ,306,TRLOC,Location of the Tumor,BLADDER,CRF
1885,CDISCPILOT01,TR,01-701-1118,TRSEQ,307,TRLOC,Location of the Tumor,BODY,CRF
1886,CDISCPILOT01,TR,01-701-1118,TRSEQ,308,TRLOC,Location of the Tumor,BODY,CRF
1887,CDISCPILOT01,TR,01-701-1118,TRSEQ,309,TRLOC,Location of the Tumor,BODY,CRF
1888,CDISCPILOT01,TR,01-701-1118,TRSEQ,310,TRLOC,Location of the Tumor,BONE,CRF
1889,CDISCPILOT01,TR,01-701-1118,TRSEQ,311,TRLOC,Location of the Tumor,BONE,CRF
1890,CDISCPILOT01,TR,01-701-1118,TRSEQ,312,TRLOC,Location of the Tumor,BONE,CRF
1891,CDISCPILOT01,TR,01-701-1118,TRSEQ,313,TRLOC,Location of the Tumor,,CRF
1892,CDISCPILOT01,TR,01-701-1118,TRSEQ,314,TRLOC,Location of the Tumor,,CRF
1893,CDISCPILOT01,TR,01-701-1118,TRSEQ,315,TRLOC,Location of the Tumor,,CRF
1894,CDISCPILOT01,TR,01-701-1130,TRSEQ,1,TRLOC,Location of the Tumor,,CRF
1895,CDISCPILOT01,TR,01-701-1130,TRSEQ,2,TRLOC,Location of the Tumor,,CRF
1896,CDISCPILOT01,TR,01-701-1130,TRSEQ,3,TRLOC,Location of the Tumor,,CRF
1897,CDISCPILOT01,TR,01-701-1130,TRSEQ,4,TRLOC,Location of the Tumor,,CRF
1898,CDISCPILOT01,TR,01-701-1130,TRSEQ,5,TRLOC,Location of the Tumor,,CRF
1899,CDISCPILOT01,TR,01-701-1130,TRSEQ,6,TRLOC,Location of the Tumor,,CRF
1900,CDISCPILOT01,TR,01-701-1130,TRSEQ,7,TRLOC,Location of the Tumor,,CRF
1901,CDISCPILOT01,TR,01-701-1130,TRSEQ,8,TRLOC,Location of the Tumor,,CRF
1902,CDISCPILOT01,TR,01-701-1130,TRSEQ,9,TRLOC,Location of the Tumor,,CRF
1903,CDISCPILOT01,TR,01-701-1130,TRSEQ,10,TRLOC,Location of the Tumor,,CRF
1904,CDISCPILOT01,TR,01-701-1130,TRSEQ,11,TRLOC,Location of the Tumor,,CRF
1905,CDISCPILOT01,TR,01-701-1130,TRSEQ,12,TRLOC,Location of the Tumor,,CRF
1906,CDISCPILOT01,TR,01-701-1130,TRSEQ,13,TRLOC,Location of the Tumor,,CRF
1907,CDISCPILOT01,TR,01-701-1130,TRSEQ,14,TRLOC,Location of the Tumor,,CRF
1908,CDISCPILOT01,TR,01-701-1130,TRSEQ,15,TRLOC,Location of the Tumor,,CRF
1909,CDISCPILOT01,TR,01-701-1130,TRSEQ,16,TRLOC,Location of the Tumor,LYMPH NODE,CRF
1910,CDISCPILOT01,TR,01-701-1130,TRSEQ,17,TRLOC,Location of the Tumor,LYMPH NODE,CRF
1911,CDISCPILOT01,TR,01-701-1130,TRSEQ,18,TRLOC,Location of the Tumor,LYMPH NODE,CRF
1912,CDISCPILOT01,TR,01-701-1130,TRSEQ,19,TRLOC,Location of the Tumor,BLADDER,CRF
1913,CDISCPILOT01,TR,01-701-1130,TRSEQ,20,TRLOC,Location of the Tumor,BLADDER,CRF
1914,CDISCPILOT01,TR,01-701-1130,TRSEQ,21,TRLOC,Location of the Tumor,BLADDER,CRF
1915,CDISCPILOT01,TR,01-701-1130,TRSEQ,22,TRLOC,Location of the Tumor,BODY,CRF
1916,CDISCPILOT01,TR,01-701-1130,TRSEQ,23,TRLOC,Location of the Tumor,BODY,CRF
1917,CDISCPILOT01,TR,01-701-1130,TRSEQ,24,TRLOC,Location of the Tumor,BODY,CRF
1918,CDISCPILOT01,TR,01-701-1130,TRSEQ,25,TRLOC,Location of the Tumor,BONE,CRF
1919,CDISCPILOT01,TR,01-701-1130,TRSEQ,26,TRLOC,Location of the Tumor,BONE,CRF
1920,CDISCPILOT01,TR,01-701-1130,TRSEQ,27,TRLOC,Location of the Tumor,BONE,CRF
1921,CDISCPILOT01,TR,01-701-1130,TRSEQ,28,TRLOC,Location of the Tumor,BREAST,CRF
1922,CDISCPILOT01,TR,01-701-1130,TRSEQ,29,TRLOC,Location of the Tumor,BREAST,CRF
1923,CDISCPILOT01,TR,01-701-1130,TRSEQ,30,TRLOC,Location of the Tumor,BREAST,CRF
1924,CDISCPILOT01,TR,01-701-1130,TRSEQ,31,TRLOC,Location of the Tumor,LYMPH NODE,CRF
1925,CDISCPILOT01,TR,01-701-1130,TRSEQ,32,TRLOC,Location of the Tumor,LYMPH NODE,CRF
1926,CDISCPILOT01,TR,01-701-1130,TRSEQ,33,TRLOC,Location of the Tumor,LYMPH NODE,CRF
1927,CDISCPILOT01,TR,01-701-1130,TRSEQ,34,TRLOC,Location of the Tumor,BLADDER,CRF
1928,CDISCPILOT01,TR,01-701-1130,TRSEQ,35,TRLOC,Location of the Tumor,BLADDER,CRF
1929,CDISCPILOT01,TR,01-701-1130,TRSEQ,36,TRLOC,Location of the Tumor,BLADDER,CRF
1930,CDISCPILOT01,TR,01-701-1130,TRSEQ,37,TRLOC,Location of the Tumor,BODY,CRF
1931,CDISCPILOT01,TR,01-701-1130,TRSEQ,38,TRLOC,Location of the Tumor,BODY,CRF
1932,CDISCPILOT01,TR,01-701-1130,TRSEQ,39,TRLOC,Location of the Tumor,BODY,CRF
1933,CDISCPILOT01,TR,01-701-1130,TRSEQ,40,TRLOC,Location of the Tumor,BONE,CRF
1934,CDISCPILOT01,TR,01-701-1130,TRSEQ,41,TRLOC,Location of the Tumor,BONE,CRF
1935,CDISCPILOT01,TR,01-701-1130,TRSEQ,42,TRLOC,Location of the Tumor,BONE,CRF
1936,CDISCPILOT01,TR,01-701-1130,TRSEQ,43,TRLOC,Location of the Tumor,BREAST,CRF
1937,CDISCPILOT01,TR,01-701-1130,TRSEQ,44,TRLOC,Location of the Tumor,BREAST,CRF
1938,CDISCPILOT01,TR,01-701-1130,TRSEQ,45,TRLOC,Location of the Tumor,BREAST,CRF
1939,CDISCPILOT01,TR,01-701-1130,TRSEQ,46,TRLOC,Location of the Tumor,ADRENAL GLAND,CRF
1940,CDISCPILOT01,TR,01-701-1130,TRSEQ,47,TRLOC,Location of the Tumor,ADRENAL GLAND,CRF
1941,CDISCPILOT01,TR,01-701-1130,TRSEQ,48,TRLOC,Location of the Tumor,ADRENAL GLAND,CRF
1942,CDISCPILOT01,TR,01-701-1130,TRSEQ,49,TRLOC,Location of the Tumor,LYMPH NODE,CRF
1943,CDISCPILOT01,TR,01-701-1130,TRSEQ,50,TRLOC,Location of the Tumor,LYMPH NODE,CRF
1944,CDISCPILOT01,TR,01-701-1130,TRSEQ,51,TRLOC,Location of the Tumor,LYMPH NODE,CRF
1945,CDISCPILOT01,TR,01-701-1130,TRSEQ,52,TRLOC,Location of the Tumor,BLADDER,CRF
1946,CDISCPILOT01,TR,01-701-1130,TRSEQ,53,TRLOC,Location of the Tumor,BLADDER,CRF
1947,CDISCPILOT01,TR,01-701-1130,TRSEQ,54,TRLOC,Location of the Tumor,BLADDER,CRF
1948,CDISCPILOT01,TR,01-701-1130,TRSEQ,55,TRLOC,Location of the Tumor,BODY,CRF
1949,CDISCPILOT01,TR,01-701-1130,TRSEQ,56,TRLOC,Location of the Tumor,BODY,CRF
1950,CDISCPILOT01,TR,01-701-1130,TRSEQ,57,TRLOC,Location of the Tumor,BODY,CRF
1951,CDISCPILOT01,TR,01-701-1130,TRSEQ,58,TRLOC,Location of the Tumor,BONE,CRF
1952,CDISCPILOT01,TR,01-701-1130,TRSEQ,59,TRLOC,Location of the Tumor,BONE,CRF
1953,CDISCPILOT01,TR,01-701-1130,TRSEQ,60,TRLOC,Location of the Tumor,BONE,CRF
1954,CDISCPILOT01,TR,01-701-1130,TRSEQ,61,TRLOC,Location of the Tumor,,CRF
1955,CDISCPILOT01,TR,01-701-1130,TRSEQ,62,TRLOC,Location of the Tumor,,CRF
1956,CDISCPILOT01,TR,01-701-1130,TRSEQ,63,TRLOC,Location of the Tumor,,CRF
1957,CDISCPILOT01,TR,01-701-1130,TRSEQ,64,TRLOC,Location of the Tumor,,CRF
1958,CDISCPILOT01,TR,01-701-1130,TRSEQ,65,TRLOC,Location of the Tumor,,CRF
1959,CDISCPILOT01,TR,01-701-1130,TRSEQ,66,TRLOC,Location of the Tumor,,CRF
1960,CDISCPILOT01,TR,01-701-1130,TRSEQ,67,TRLOC,Location of the Tumor,,CRF
1961,CDISCPILOT01,TR,01-701-1130,TRSEQ,68,TRLOC,Location of the Tumor,,CRF
1962,CDISCPILOT01,TR,01-701-1130,TRSEQ,69,TRLOC,Location of the Tumor,,CRF
1963,CDISCPILOT01,TR,01-701-1130,TRSEQ,70,TRLOC,Location of the Tumor,,CRF
1964,CDISCPILOT01,TR,01-701-1130,TRSEQ,71,TRLOC,Location of the Tumor,,CRF
1965,CDISCPILOT01,TR,01-701-1130,TRSEQ,72,TRLOC,Location of the Tumor,,CRF
1966,CDISCPILOT01,TR,01-701-1130,TRSEQ,73,TRLOC,Location of the Tumor,,CRF
1967,CDISCPILOT01,TR,01-701-1130,TRSEQ,74,TRLOC,Location of the Tumor,,CRF
1968,CDISCPILOT01,TR,01-701-1130,TRSEQ,75,TRLOC,Location of the Tumor,,CRF
1969,CDISCPILOT01,TR,01-701-1130,TRSEQ,76,TRLOC,Location of the Tumor,,CRF
1970,CDISCPILOT01,TR,01-701-1130,TRSEQ,77,TRLOC,Location of the Tumor,,CRF
1971,CDISCPILOT01,TR,01-701-1130,TRSEQ,78,TRLOC,Location of the Tumor,,CRF
1972,CDISCPILOT01,TR,01-701-1130,TRSEQ,79,TRLOC,Location of the Tumor,BLADDER,CRF
1973,CDISCPILOT01,TR,01-701-1130,TRSEQ,80,TRLOC,Location of the Tumor,BLADDER,CRF
1974,CDISCPILOT01,TR,01-701-1130,TRSEQ,81,TRLOC,Location of the Tumor,BLADDER,CRF
1975,CDISCPILOT01,TR,01-701-1130,TRSEQ,82,TRLOC,Location of the Tumor,BODY,CRF
1976,CDISCPILOT01,TR,01-701-1130,TRSEQ,83,TRLOC,Location of the Tumor,BODY,CRF
1977,CDISCPILOT01,TR,01-701-1130,TRSEQ,84,TRLOC,Location of the Tumor,BODY,CRF
1978,CDISCPILOT01,TR,01-701-1130,TRSEQ,85,TRLOC,Location of the Tumor,BONE,CRF
1979,CDISCPILOT01,TR,01-701-1130,TRSEQ,86,TRLOC,Location of the Tumor,BONE,CRF
1980,CDISCPILOT01,TR,01-701-1130,TRSEQ,87,TRLOC,Location of the Tumor,BONE,CRF
1981,CDISCPILOT01,TR,01-701-1130,TRSEQ,88,TRLOC,Location of the Tumor,BREAST,CRF
1982,CDISCPILOT01,TR,01-701-1130,TRSEQ,89,TRLOC,Location of the Tumor,BREAST,CRF
1983,CDISCPILOT01,TR,01-701-1130,TRSEQ,90,TRLOC,Location of the Tumor,BREAST,CRF
1984,CDISCPILOT01,TR,01-701-1130,TRSEQ,91,TRLOC,Location of the Tumor,CHEST,CRF
1985,CDISCPILOT01,TR,01-701-1130,TRSEQ,92,TRLOC,Location of the Tumor,CHEST,CRF
1986,CDISCPILOT01,TR,01-701-1130,TRSEQ,93,TRLOC,Location of the Tumor,CHEST,CRF
1987,CDISCPILOT01,TR,01-701-1130,TRSEQ,94,TRLOC,Location of the Tumor,LYMPH NODE,CRF
1988,CDISCPILOT01,TR,01-701-1130,TRSEQ,95,TRLOC,Location of the Tumor,LYMPH NODE,CRF
1989,CDISCPILOT01,TR,01-701-1130,TRSEQ,96,TRLOC,Location of the Tumor,LYMPH NODE,CRF
1990,CDISCPILOT01,TR,01-701-1130,TRSEQ,97,TRLOC,Location of the Tumor,BLADDER,CRF
1991,CDISCPILOT01,TR,01-701-1130,TRSEQ,98,TRLOC,Location of the Tumor,BLADDER,CRF
1992,CDISCPILOT01,TR,01-701-1130,TRSEQ,99,TRLOC,Location of the Tumor,BLADDER,CRF
1993,CDISCPILOT01,TR,01-701-1130,TRSEQ,100,TRLOC,Location of the Tumor,BODY,CRF
1994,CDISCPILOT01,TR,01-701-1130,TRSEQ,101,TRLOC,Location of the Tumor,BODY,CRF
1995,CDISCPILOT01,TR,01-701-1130,TRSEQ,102,TRLOC,Location of the Tumor,BODY,CRF
1996,CDISCPILOT01,TR,01-701-1130,TRSEQ,103,TRLOC,Location of the Tumor,BONE,CRF
1997,CDISCPILOT01,TR,01-701-1130,TRSEQ,104,TRLOC,Location of the Tumor,BONE,CRF
1998,CDISCPILOT01,TR,01-701-1130,TRSEQ,105,TRLOC,Location of the Tumor,BONE,CRF
1999,CDISCPILOT01,TR,01-701-1130,TRSEQ,106,TRLOC,Location of the Tumor,BREAST,CRF
2000,CDISCPILOT01,TR,01-701-1130,TRSEQ,107,TRLOC,Location of the Tumor,BREAST,CRF
2001,CDISCPILOT01,TR,01-701-1130,TRSEQ,108,TRLOC,Location of the Tumor,BREAST,CRF
2002,CDISCPILOT01,TR,01-701-1130,TRSEQ,109,TRLOC,Location of the Tumor,LYMPH NODE,CRF
2003,CDISCPILOT01,TR,01-701-1130,TRSEQ,110,TRLOC,Location of the Tumor,LYMPH NODE,CRF
2004,CDISCPILOT01,TR,01-701-1130,TRSEQ,111,TRLOC,Location of the Tumor,LYMPH NODE,CRF
2005,CDISCPILOT01,TR,01-701-1130,TRSEQ,112,TRLOC,Location of the Tumor,BLADDER,CRF
2006,CDISCPILOT01,TR,01-701-1130,TRSEQ,113,TRLOC,Location of the Tumor,BLADDER,CRF
2007,CDISCPILOT01,TR,01-701-1130,TRSEQ,114,TRLOC,Location of the Tumor,BLADDER,CRF
2008,CDISCPILOT01,TR,01-701-1130,TRSEQ,115,TRLOC,Location of the Tumor,BODY,CRF
2009,CDISCPILOT01,TR,01-701-1130,TRSEQ,116,TRLOC,Location of the Tumor,BODY,CRF
2010,CDISCPILOT01,TR,01-701-1130,TRSEQ,117,TRLOC,Location of the Tumor,BODY,CRF
2011,CDISCPILOT01,TR,01-701-1130,TRSEQ,118,TRLOC,Location of the Tumor,BONE,CRF
2012,CDISCPILOT01,TR,01-701-1130,TRSEQ,119,TRLOC,Location of the Tumor,BONE,CRF
2013,CDISCPILOT01,TR,01-701-1130,TRSEQ,120,TRLOC,Location of the Tumor,BONE,CRF
2014,CDISCPILOT01,TR,01-701-1130,TRSEQ,121,TRLOC,Location of the Tumor,BREAST,CRF
2015,CDISCPILOT01,TR,01-701-1130,TRSEQ,122,TRLOC,Location of the Tumor,BREAST,CRF
2016,CDISCPILOT01,TR,01-701-1130,TRSEQ,123,TRLOC,Location of the Tumor,BREAST,CRF
2017,CDISCPILOT01,TR,01-701-1130,TRSEQ,124,TRLOC,Location of the Tumor,,CRF
2018,CDISCPILOT01,TR,01-701-1130,TRSEQ,125,TRLOC,Location of the Tumor,,CRF
2019,CDISCPILOT01,TR,01-701-1130,TRSEQ,126,TRLOC,Location of the Tumor,,CRF
2020,CDISCPILOT01,TR,01-701-1130,TRSEQ,127,TRLOC,Location of the Tumor,,CRF
2021,CDISCPILOT01,TR,01-701-1130,TRSEQ,128,TRLOC,Location of the Tumor,,CRF
2022,CDISCPILOT01,TR,01-701-1130,TRSEQ,129,TRLOC,Location of the Tumor,,CRF
2023,CDISCPILOT01,TR,01-701-1130,TRSEQ,130,TRLOC,Location of the Tumor,,CRF
2024,CDISCPILOT01,TR,01-701-1130,TRSEQ,131,TRLOC,Location of the Tumor,,CRF
2025,CDISCPILOT01,TR,01-701-1130,TRSEQ,132,TRLOC,Location of the Tumor,,CRF
2026,CDISCPILOT01,TR,01-701-1130,TRSEQ,133,TRLOC,Location of the Tumor,,CRF
2027,CDISCPILOT01,TR,01-701-1130,TRSEQ,134,TRLOC,Location of the Tumor,,CRF
2028,CDISCPILOT01,TR,01-701-1130,TRSEQ,135,TRLOC,Location of the Tumor,,CRF
2029,CDISCPILOT01,TR,01-701-1130,TRSEQ,136,TRLOC,Location of the Tumor,,CRF
2030,CDISCPILOT01,TR,01-701-1130,TRSEQ,137,TRLOC,Location of the Tumor,,CRF
2031,CDISCPILOT01,TR,01-701-1130,TRSEQ,138,TRLOC,Location of the Tumor,,CRF
2032,CDISCPILOT01,TR,01-701-1130,TRSEQ,139,TRLOC,Location of the Tumor,,CRF
2033,CDISCPILOT01,TR,01-701-1130,TRSEQ,140,TRLOC,Location of the Tumor,,CRF
2034,CDISCPILOT01,TR,01-701-1130,TRSEQ,141,TRLOC,Location of the Tumor,,CRF
2035,CDISCPILOT01,TR,01-701-1130,TRSEQ,142,TRLOC,Location of the Tumor,ADRENAL GLAND,CRF
2036,CDISCPILOT01,TR,01-701-1130,TRSEQ,143,TRLOC,Location of the Tumor,ADRENAL GLAND,CRF
2037,CDISCPILOT01,TR,01-701-1130,TRSEQ,144,TRLOC,Location of the Tumor,ADRENAL GLAND,CRF
2038,CDISCPILOT01,TR,01-701-1130,TRSEQ,145,TRLOC,Location of the Tumor,LYMPH NODE,CRF
2039,CDISCPILOT01,TR,01-701-1130,TRSEQ,146,TRLOC,Location of the Tumor,LYMPH NODE,CRF
2040,CDISCPILOT01,TR,01-701-1130,TRSEQ,147,TRLOC,Location of the Tumor,LYMPH NODE,CRF
2041,CDISCPILOT01,TR,01-701-1130,TRSEQ,148,TRLOC,Location of the Tumor,BLADDER,CRF
2042,CDISCPILOT01,TR,01-701-1130,TRSEQ,149,TRLOC,Location of the Tumor,BLADDER,CRF
2043,CDISCPILOT01,TR,01-701-1130,TRSEQ,150,TRLOC,Location of the Tumor,BLADDER,CRF
2044,CDISCPILOT01,TR,01-701-1130,TRSEQ,151,TRLOC,Location of the Tumor,BODY,CRF
2045,CDISCPILOT01,TR,01-701-1130,TRSEQ,152,TRLOC,Location of the Tumor,BODY,CRF
2046,CDISCPILOT01,TR,01-701-1130,TRSEQ,153,TRLOC,Location of the Tumor,BODY,CRF
2047,CDISCPILOT01,TR,01-701-1130,TRSEQ,154,TRLOC,Location of the Tumor,BONE,CRF
2048,CDISCPILOT01,TR,01-701-1130,TRSEQ,155,TRLOC,Location of the Tumor,BONE,CRF
2049,CDISCPILOT01,TR,01-701-1130,TRSEQ,156,TRLOC,Location of the Tumor,BONE,CRF
2050,CDISCPILOT01,TR,01-701-1130,TRSEQ,157,TRLOC,Location of the Tumor,BLADDER,CRF
2051,CDISCPILOT01,TR,01-701-1130,TRSEQ,158,TRLOC,Location of the Tumor,BLADDER,CRF
2052,CDISCPILOT01,TR,01-701-1130,TRSEQ,159,TRLOC,Location of the Tumor,BLADDER,CRF
2053,CDISCPILOT01,TR,01-701-1130,TRSEQ,160,TRLOC,Location of the Tumor,BODY,CRF
2054,CDISCPILOT01,TR,01-701-1130,TRSEQ,161,TRLOC,Location of the Tumor,BODY,CRF
2055,CDISCPILOT01,TR,01-701-1130,TRSEQ,162,TRLOC,Location of the Tumor,BODY,CRF
2056,CDISCPILOT01,TR,01-701-1130,TRSEQ,163,TRLOC,Location of the Tumor,BONE,CRF
2057,CDISCPILOT01,TR,01-701-1130,TRSEQ,164,TRLOC,Location of the Tumor,BONE,CRF
2058,CDISCPILOT01,TR,01-701-1130,TRSEQ,165,TRLOC,Location of the Tumor,BONE,CRF
2059,CDISCPILOT01,TR,01-701-1130,TRSEQ,166,TRLOC,Location of the Tumor,BREAST,CRF
2060,CDISCPILOT01,TR,01-701-1130,TRSEQ,167,TRLOC,Location of the Tumor,BREAST,CRF
2061,CDISCPILOT01,TR,01-701-1130,TRSEQ,168,TRLOC,Location of the Tumor,BREAST,CRF
2062,CDISCPILOT01,TR,01-701-1130,TRSEQ,169,TRLOC,Location of the Tumor,CHEST,CRF
2063,CDISCPILOT01,TR,01-701-1130,TRSEQ,170,TRLOC,Location of the Tumor,CHEST,CRF
2064,CDISCPILOT01,TR,01-701-1130,TRSEQ,171,TRLOC,Location of the Tumor,CHEST,CRF
2065,CDISCPILOT01,TR,01-701-1130,TRSEQ,172,TRLOC,Location of the Tumor,ADRENAL GLAND,CRF
2066,CDISCPILOT01,TR,01-701-1130,TRSEQ,173,TRLOC,Location of the Tumor,ADRENAL GLAND,CRF
2067,CDISCPILOT01,TR,01-701-1130,TRSEQ,174,TRLOC,Location of the Tumor,ADRENAL GLAND,CRF
2068,CDISCPILOT01,TR,01-701-1130,TRSEQ,175,TRLOC,Location of the Tumor,LYMPH NODE,CRF
2069,CDISCPILOT01,TR,01-701-1130,TRSEQ,176,TRLOC,Location of the Tumor,LYMPH NODE,CRF
2070,CDISCPILOT01,TR,01-701-1130,TRSEQ,177,TRLOC,Location of the Tumor,LYMPH NODE,CRF
2071,CDISCPILOT01,TR,01-701-1130,TRSEQ,178,TRLOC,Location of the Tumor,BLADDER,CRF
2072,CDISCPILOT01,TR,01-701-1130,TRSEQ,179,TRLOC,Location of the Tumor,BLADDER,CRF
2073,CDISCPILOT01,TR,01-701-1130,TRSEQ,180,TRLOC,Location of the Tumor,BLADDER,CRF
2074,CDISCPILOT01,TR,01-701-1130,TRSEQ,181,TRLOC,Location of the Tumor,BODY,CRF
2075,CDISCPILOT01,TR,01-701-1130,TRSEQ,182,TRLOC,Location of the Tumor,BODY,CRF
2076,CDISCPILOT01,TR,01-701-1130,TRSEQ,183,TRLOC,Location of the Tumor,BODY,CRF
2077,CDISCPILOT01,TR,01-701-1130,TRSEQ,184,TRLOC,Location of the Tumor,BONE,CRF
2078,CDISCPILOT01,TR,01-701-1130,TRSEQ,185,TRLOC,Location of the Tumor,BONE,CRF
2079,CDISCPILOT01,TR,01-701-1130,TRSEQ,186,TRLOC,Location of the Tumor,BONE,CRF
2080,CDISCPILOT01,TR,01-701-1130,TRSEQ,187,TRLOC,Location of the Tumor,,CRF
2081,CDISCPILOT01,TR,01-701-1130,TRSEQ,188,TRLOC,Location of the Tumor,,CRF
2082,CDISCPILOT01,TR,01-701-1130,TRSEQ,189,TRLOC,Location of the Tumor,,CRF
2083,CDISCPILOT01,TR,01-701-1130,TRSEQ,190,TRLOC,Location of the Tumor,,CRF
2084,CDISCPILOT01,TR,01-701-1130,TRSEQ,191,TRLOC,Location of the Tumor,,CRF
2085,CDISCPILOT01,TR,01-701-1130,TRSEQ,192,TRLOC,Location of the Tumor,,CRF
2086,CDISCPILOT01,TR,01-701-1130,TRSEQ,193,TRLOC,Location of the Tumor,,CRF
2087,CDISCPILOT01,TR,01-701-1130,TRSEQ,194,TRLOC,Location of the Tumor,,CRF
2088,CDISCPILOT01,TR,01-701-1130,TRSEQ,195,TRLOC,Location of the Tumor,,CRF
2089,CDISCPILOT01,TR,01-701-1130,TRSEQ,196,TRLOC,Location of the Tumor,,CRF
2090,CDISCPILOT01,TR,01-701-1130,TRSEQ,197,TRLOC,Location of the Tumor,,CRF
2091,CDISCPILOT01,TR,01-701-1130,TRSEQ,198,TRLOC,Location of the Tumor,,CRF
2092,CDISCPILOT01,TR,01-701-1130,TRSEQ,199,TRLOC,Location of the Tumor,,CRF
2093,CDISCPILOT01,TR,01-701-1130,TRSEQ,200,TRLOC,Location of the Tumor,,CRF
2094,CDISCPILOT01,TR,01-701-1130,TRSEQ,201,TRLOC,Location of the Tumor,,CRF
2095,CDISCPILOT01,TR,01-701-1130,TRSEQ,202,TRLOC,Location of the Tumor,,CRF
2096,CDISCPILOT01,TR,01-701-1130,TRSEQ,203,TRLOC,Location of the Tumor,,CRF
2097,CDISCPILOT01,TR,01-701-1130,TRSEQ,204,TRLOC,Location of the Tumor,,CRF
2098,CDISCPILOT01,TR,01-701-1130,TRSEQ,205,TRLOC,Location of the Tumor,LYMPH NODE,CRF
2099,CDISCPILOT01,TR,01-701-1130,TRSEQ,206,TRLOC,Location of the Tumor,LYMPH NODE,CRF
2100,CDISCPILOT01,TR,01-701-1130,TRSEQ,207,TRLOC,Location of the Tumor,LYMPH NODE,CRF
2101,CDISCPILOT01,TR,01-701-1130,TRSEQ,208,TRLOC,Location of the Tumor,BLADDER,CRF
2102,CDISCPILOT01,TR,01-701-1130,TRSEQ,209,TRLOC,Location of the Tumor,BLADDER,CRF
2103,CDISCPILOT01,TR,01-701-1130,TRSEQ,210,TRLOC,Location of the Tumor,BLADDER,CRF
2104,CDISCPILOT01,TR,01-701-1130,TRSEQ,211,TRLOC,Location of the Tumor,BODY,CRF
2105,CDISCPILOT01,TR,01-701-1130,TRSEQ,212,TRLOC,Location of the Tumor,BODY,CRF
2106,CDISCPILOT01,TR,01-701-1130,TRSEQ,213,TRLOC,Location of the Tumor,BODY,CRF
2107,CDISCPILOT01,TR,01-701-1130,TRSEQ,214,TRLOC,Location of the Tumor,BONE,CRF
2108,CDISCPILOT01,TR,01-701-1130,TRSEQ,215,TRLOC,Location of the Tumor,BONE,CRF
2109,CDISCPILOT01,TR,01-701-1130,TRSEQ,216,TRLOC,Location of the Tumor,BONE,CRF
2110,CDISCPILOT01,TR,01-701-1130,TRSEQ,217,TRLOC,Location of the Tumor,BREAST,CRF
2111,CDISCPILOT01,TR,01-701-1130,TRSEQ,218,TRLOC,Location of the Tumor,BREAST,CRF
2112,CDISCPILOT01,TR,01-701-1130,TRSEQ,219,TRLOC,Location of the Tumor,BREAST,CRF
2113,CDISCPILOT01,TR,01-701-1130,TRSEQ,220,TRLOC,Location of the Tumor,ABDOMINAL CAVITY,CRF
2114,CDISCPILOT01,TR,01-701-1130,TRSEQ,221,TRLOC,Location of the Tumor,ABDOMINAL CAVITY,CRF
2115,CDISCPILOT01,TR,01-701-1130,TRSEQ,222,TRLOC,Location of the Tumor,ABDOMINAL CAVITY,CRF
2116,CDISCPILOT01,TR,01-701-1130,TRSEQ,223,TRLOC,Location of the Tumor,ADRENAL GLAND,CRF
2117,CDISCPILOT01,TR,01-701-1130,TRSEQ,224,TRLOC,Location of the Tumor,ADRENAL GLAND,CRF
2118,CDISCPILOT01,TR,01-701-1130,TRSEQ,225,TRLOC,Location of the Tumor,ADRENAL GLAND,CRF
2119,CDISCPILOT01,TR,01-701-1130,TRSEQ,226,TRLOC,Location of the Tumor,LYMPH NODE,CRF
2120,CDISCPILOT01,TR,01-701-1130,TRSEQ,227,TRLOC,Location of the Tumor,LYMPH NODE,CRF
2121,CDISCPILOT01,TR,01-701-1130,TRSEQ,228,TRLOC,Location of the Tumor,LYMPH NODE,CRF
2122,CDISCPILOT01,TR,01-701-1130,TRSEQ,229,TRLOC,Location of the Tumor,BLADDER,CRF
2123,CDISCPILOT01,TR,01-701-1130,TRSEQ,230,TRLOC,Location of the Tumor,BLADDER,CRF
2124,CDISCPILOT01,TR,01-701-1130,TRSEQ,231,TRLOC,Location of the Tumor,BLADDER,CRF
2125,CDISCPILOT01,TR,01-701-1130,TRSEQ,232,TRLOC,Location of the Tumor,BODY,CRF
2126,CDISCPILOT01,TR,01-701-1130,TRSEQ,233,TRLOC,Location of the Tumor,BODY,CRF
2127,CDISCPILOT01,TR,01-701-1130,TRSEQ,234,TRLOC,Location of the Tumor,BODY,CRF
2128,CDISCPILOT01,TR,01-701-1130,TRSEQ,235,TRLOC,Location of the Tumor,ABDOMINAL CAVITY,CRF
2129,CDISCPILOT01,TR,01-701-1130,TRSEQ,236,TRLOC,Location of the Tumor,ABDOMINAL CAVITY,CRF
2130,CDISCPILOT01,TR,01-701-1130,TRSEQ,237,TRLOC,Location of the Tumor,ABDOMINAL CAVITY,CRF
2131,CDISCPILOT01,TR,01-701-1130,TRSEQ,238,TRLOC,Location of the Tumor,ADRENAL GLAND,CRF
2132,CDISCPILOT01,TR,01-701-1130,TRSEQ,239,TRLOC,Location of the Tumor,ADRENAL GLAND,CRF
2133,CDISCPILOT01,TR,01-701-1130,TRSEQ,240,TRLOC,Location of the Tumor,ADRENAL GLAND,CRF
2134,CDISCPILOT01,TR,01-701-1130,TRSEQ,241,TRLOC,Location of the Tumor,LYMPH NODE,CRF
2135,CDISCPILOT01,TR,01-701-1130,TRSEQ,242,TRLOC,Location of the Tumor,LYMPH NODE,CRF
2136,CDISCPILOT01,TR,01-701-1130,TRSEQ,243,TRLOC,Location of the Tumor,LYMPH NODE,CRF
2137,CDISCPILOT01,TR,01-701-1130,TRSEQ,244,TRLOC,Location of the Tumor,BLADDER,CRF
2138,CDISCPILOT01,TR,01-701-1130,TRSEQ,245,TRLOC,Location of the Tumor,BLADDER,CRF
2139,CDISCPILOT01,TR,01-701-1130,TRSEQ,246,TRLOC,Location of the Tumor,BLADDER,CRF
2140,CDISCPILOT01,TR,01-701-1130,TRSEQ,247,TRLOC,Location of the Tumor,BODY,CRF
2141,CDISCPILOT01,TR,01-701-1130,TRSEQ,248,TRLOC,Location of the Tumor,BODY,CRF
2142,CDISCPILOT01,TR,01-701-1130,TRSEQ,249,TRLOC,Location of the Tumor,BODY,CRF
2143,CDISCPILOT01,TR,01-701-1130,TRSEQ,250,TRLOC,Location of the Tumor,,CRF
2144,CDISCPILOT01,TR,01-701-1130,TRSEQ,251,TRLOC,Location of the Tumor,,CRF
2145,CDISCPILOT01,TR,01-701-1130,TRSEQ,252,TRLOC,Location of the Tumor,,CRF
2146,CDISCPILOT01,TR,01-701-1130,TRSEQ,253,TRLOC,Location of the Tumor,,CRF
2147,CDISCPILOT01,TR,01-701-1130,TRSEQ,254,TRLOC,Location of the Tumor,,CRF
2148,CDISCPILOT01,TR,01-701-1130,TRSEQ,255,TRLOC,Location of the Tumor,,CRF
2149,CDISCPILOT01,TR,01-701-1130,TRSEQ,256,TRLOC,Location of the Tumor,,CRF
2150,CDISCPILOT01,TR,01-701-1130,TRSEQ,257,TRLOC,Location of the Tumor,,CRF
2151,CDISCPILOT01,TR,01-701-1130,TRSEQ,258,TRLOC,Location of the Tumor,,CRF
2152,CDISCPILOT01,TR,01-701-1130,TRSEQ,259,TRLOC,Location of the Tumor,,CRF
2153,CDISCPILOT01,TR,01-701-1130,TRSEQ,260,TRLOC,Location of the Tumor,,CRF
2154,CDISCPILOT01,TR,01-701-1130,TRSEQ,261,TRLOC,Location of the Tumor,,CRF
2155,CDISCPILOT01,TR,01-701-1130,TRSEQ,262,TRLOC,Location of the Tumor,,CRF
2156,CDISCPILOT01,TR,01-701-1130,TRSEQ,263,TRLOC,Location of the Tumor,,CRF
2157,CDISCPILOT01,TR,01-701-1130,TRSEQ,264,TRLOC,Location of the Tumor,,CRF
2158,CDISCPILOT01,TR,01-701-1130,TRSEQ,265,TRLOC,Location of the Tumor,,CRF
2159,CDISCPILOT01,TR,01-701-1130,TRSEQ,266,TRLOC,Location of the Tumor,,CRF
2160,CDISCPILOT01,TR,01-701-1130,TRSEQ,267,TRLOC,Location of the Tumor,,CRF
2161,CDISCPILOT01,TR,01-701-1130,TRSEQ,268,TRLOC,Location of the Tumor,ABDOMINAL CAVITY,CRF
2162,CDISCPILOT01,TR,01-701-1130,TRSEQ,269,TRLOC,Location of the Tumor,ABDOMINAL CAVITY,CRF
2163,CDISCPILOT01,TR,01-701-1130,TRSEQ,270,TRLOC,Location of the Tumor,ABDOMINAL CAVITY,CRF
2164,CDISCPILOT01,TR,01-701-1130,TRSEQ,271,TRLOC,Location of the Tumor,ADRENAL GLAND,CRF
2165,CDISCPILOT01,TR,01-701-1130,TRSEQ,272,TRLOC,Location of the Tumor,ADRENAL GLAND,CRF
2166,CDISCPILOT01,TR,01-701-1130,TRSEQ,273,TRLOC,Location of the Tumor,ADRENAL GLAND,CRF
2167,CDISCPILOT01,TR,01-701-1130,TRSEQ,274,TRLOC,Location of the Tumor,LYMPH NODE,CRF
2168,CDISCPILOT01,TR,01-701-1130,TRSEQ,275,TRLOC,Location of the Tumor,LYMPH NODE,CRF
2169,CDISCPILOT01,TR,01-701-1130,TRSEQ,276,TRLOC,Location of the Tumor,LYMPH NODE,CRF
2170,CDISCPILOT01,TR,01-701-1130,TRSEQ,277,TRLOC,Location of the Tumor,BLADDER,CRF
2171,CDISCPILOT01,TR,01-701-1130,TRSEQ,278,TRLOC,Location of the Tumor,BLADDER,CRF
2172,CDISCPILOT01,TR,01-701-1130,TRSEQ,279,TRLOC,Location of the Tumor,BLADDER,CRF
2173,CDISCPILOT01,TR,01-701-1130,TRSEQ,280,TRLOC,Location of the Tumor,BODY,CRF
2174,CDISCPILOT01,TR,01-701-1130,TRSEQ,281,TRLOC,Location of the Tumor,BODY,CRF
2175,CDISCPILOT01,TR,01-701-1130,TRSEQ,282,TRLOC,Location of the Tumor,BODY,CRF
2176,CDISCPILOT01,TR,01-701-1130,TRSEQ,283,TRLOC,Location of the Tumor,ABDOMINAL CAVITY,CRF
2177,CDISCPILOT01,TR,01-701-1130,TRSEQ,284,TRLOC,Location of the Tumor,ABDOMINAL CAVITY,CRF
2178,CDISCPILOT01,TR,01-701-1130,TRSEQ,285,TRLOC,Location of the Tumor,ABDOMINAL CAVITY,CRF
2179,CDISCPILOT01,TR,01-701-1130,TRSEQ,286,TRLOC,Location of the Tumor,ADRENAL GLAND,CRF
2180,CDISCPILOT01,TR,01-701-1130,TRSEQ,287,TRLOC,Location of the Tumor,ADRENAL GLAND,CRF
2181,CDISCPILOT01,TR,01-701-1130,TRSEQ,288,TRLOC,Location of the Tumor,ADRENAL GLAND,CRF
2182,CDISCPILOT01,TR,01-701-1130,TRSEQ,289,TRLOC,Location of the Tumor,LYMPH NODE,CRF
2183,CDISCPILOT01,TR,01-701-1130,TRSEQ,290,TRLOC,Location of the Tumor,LYMPH NODE,CRF
2184,CDISCPILOT01,TR,01-701-1130,TRSEQ,291,TRLOC,Location of the Tumor,LYMPH NODE,CRF
2185,CDISCPILOT01,TR,01-701-1130,TRSEQ,292,TRLOC,Location of the Tumor,BLADDER,CRF
2186,CDISCPILOT01,TR,01-701-1130,TRSEQ,293,TRLOC,Location of the Tumor,BLADDER,CRF
2187,CDISCPILOT01,TR,01-701-1130,TRSEQ,294,TRLOC,Location of the Tumor,BLADDER,CRF
2188,CDISCPILOT01,TR,01-701-1130,TRSEQ,295,TRLOC,Location of the Tumor,BODY,CRF
2189,CDISCPILOT01,TR,01-701-1130,TRSEQ,296,TRLOC,Location of the Tumor,BODY,CRF
2190,CDISCPILOT01,TR,01-701-1130,TRSEQ,297,TRLOC,Location of the Tumor,BODY,CRF
2191,CDISCPILOT01,TR,01-701-1130,TRSEQ,298,TRLOC,Location of the Tumor,BLADDER,CRF
2192,CDISCPILOT01,TR,01-701-1130,TRSEQ,299,TRLOC,Location of the Tumor,BLADDER,CRF
2193,CDISCPILOT01,TR,01-701-1130,TRSEQ,300,TRLOC,Location of the Tumor,BLADDER,CRF
2194,CDISCPILOT01,TR,01-701-1130,TRSEQ,301,TRLOC,Location of the Tumor,BODY,CRF
2195,CDISCPILOT01,TR,01-701-1130,TRSEQ,302,TRLOC,Location of the Tumor,BODY,CRF
2196,CDISCPILOT01,TR,01-701-1130,TRSEQ,303,TRLOC,Location of the Tumor,BODY,CRF
2197,CDISCPILOT01,TR,01-701-1130,TRSEQ,304,TRLOC,Location of the Tumor,BONE,CRF
2198,CDISCPILOT01,TR,01-701-1130,TRSEQ,305,TRLOC,Location of the Tumor,BONE,CRF
2199,CDISCPILOT01,TR,01-701-1130,TRSEQ,306,TRLOC,Location of the Tumor,BONE,CRF
2200,CDISCPILOT01,TR,01-701-1130,TRSEQ,307,TRLOC,Location of the Tumor,BREAST,CRF
2201,CDISCPILOT01,TR,01-701-1130,TRSEQ,308,TRLOC,Location of the Tumor,BREAST,CRF
2202,CDISCPILOT01,TR,01-701-1130,TRSEQ,309,TRLOC,Location of the Tumor,BREAST,CRF
2203,CDISCPILOT01,TR,01-701-1130,TRSEQ,310,TRLOC,Location of the Tumor,CHEST,CRF
2204,CDISCPILOT01,TR,01-701-1130,TRSEQ,311,TRLOC,Location of the Tumor,CHEST,CRF
2205,CDISCPILOT01,TR,01-701-1130,TRSEQ,312,TRLOC,Location of the Tumor,CHEST,CRF
2206,CDISCPILOT01,TR,01-701-1130,TRSEQ,313,TRLOC,Location of the Tumor,,CRF
2207,CDISCPILOT01,TR,01-701-1130,TRSEQ,314,TRLOC,Location of the Tumor,,CRF
2208,CDISCPILOT01,TR,01-701-1130,TRSEQ,315,TRLOC,Location of the Tumor,,CRF
2209,CDISCPILOT01,TR,01-701-1133,TRSEQ,1,TRLOC,Location of the Tumor,,CRF
2210,CDISCPILOT01,TR,01-701-1133,TRSEQ,2,TRLOC,Location of the Tumor,,CRF
2211,CDISCPILOT01,TR,01-701-1133,TRSEQ,3,TRLOC,Location of the Tumor,,CRF
2212,CDISCPILOT01,TR,01-701-1133,TRSEQ,4,TRLOC,Location of the Tumor,,CRF
2213,CDISCPILOT01,TR,01-701-1133,TRSEQ,5,TRLOC,Location of the Tumor,,CRF
2214,CDISCPILOT01,TR,01-701-1133,TRSEQ,6,TRLOC,Location of the Tumor,,CRF
2215,CDISCPILOT01,TR,01-701-1133,TRSEQ,7,TRLOC,Location of the Tumor,,CRF
2216,CDISCPILOT01,TR,01-701-1133,TRSEQ,8,TRLOC,Location of the Tumor,,CRF
2217,CDISCPILOT01,TR,01-701-1133,TRSEQ,9,TRLOC,Location of the Tumor,,CRF
2218,CDISCPILOT01,TR,01-701-1133,TRSEQ,10,TRLOC,Location of the Tumor,,CRF
2219,CDISCPILOT01,TR,01-701-1133,TRSEQ,11,TRLOC,Location of the Tumor,,CRF
2220,CDISCPILOT01,TR,01-701-1133,TRSEQ,12,TRLOC,Location of the Tumor,,CRF
2221,CDISCPILOT01,TR,01-701-1133,TRSEQ,13,TRLOC,Location of the Tumor,,CRF
2222,CDISCPILOT01,TR,01-701-1133,TRSEQ,14,TRLOC,Location of the Tumor,,CRF
2223,CDISCPILOT01,TR,01-701-1133,TRSEQ,15,TRLOC,Location of the Tumor,,CRF
2224,CDISCPILOT01,TR,01-701-1133,TRSEQ,16,TRLOC,Location of the Tumor,LYMPH NODE,CRF
2225,CDISCPILOT01,TR,01-701-1133,TRSEQ,17,TRLOC,Location of the Tumor,LYMPH NODE,CRF
2226,CDISCPILOT01,TR,01-701-1133,TRSEQ,18,TRLOC,Location of the Tumor,LYMPH NODE,CRF
2227,CDISCPILOT01,TR,01-701-1133,TRSEQ,19,TRLOC,Location of the Tumor,BLADDER,CRF
2228,CDISCPILOT01,TR,01-701-1133,TRSEQ,20,TRLOC,Location of the Tumor,BLADDER,CRF
2229,CDISCPILOT01,TR,01-701-1133,TRSEQ,21,TRLOC,Location of the Tumor,BLADDER,CRF
2230,CDISCPILOT01,TR,01-701-1133,TRSEQ,22,TRLOC,Location of the Tumor,BODY,CRF
2231,CDISCPILOT01,TR,01-701-1133,TRSEQ,23,TRLOC,Location of the Tumor,BODY,CRF
2232,CDISCPILOT01,TR,01-701-1133,TRSEQ,24,TRLOC,Location of the Tumor,BODY,CRF
2233,CDISCPILOT01,TR,01-701-1133,TRSEQ,25,TRLOC,Location of the Tumor,BONE,CRF
2234,CDISCPILOT01,TR,01-701-1133,TRSEQ,26,TRLOC,Location of the Tumor,BONE,CRF
2235,CDISCPILOT01,TR,01-701-1133,TRSEQ,27,TRLOC,Location of the Tumor,BONE,CRF
2236,CDISCPILOT01,TR,01-701-1133,TRSEQ,28,TRLOC,Location of the Tumor,BREAST,CRF
2237,CDISCPILOT01,TR,01-701-1133,TRSEQ,29,TRLOC,Location of the Tumor,BREAST,CRF
2238,CDISCPILOT01,TR,01-701-1133,TRSEQ,30,TRLOC,Location of the Tumor,BREAST,CRF
2239,CDISCPILOT01,TR,01-701-1133,TRSEQ,31,TRLOC,Location of the Tumor,ABDOMINAL CAVITY,CRF
2240,CDISCPILOT01,TR,01-701-1133,TRSEQ,32,TRLOC,Location of the Tumor,ABDOMINAL CAVITY,CRF
2241,CDISCPILOT01,TR,01-701-1133,TRSEQ,33,TRLOC,Location of the Tumor,ABDOMINAL CAVITY,CRF
2242,CDISCPILOT01,TR,01-701-1133,TRSEQ,34,TRLOC,Location of the Tumor,ADRENAL GLAND,CRF
2243,CDISCPILOT01,TR,01-701-1133,TRSEQ,35,TRLOC,Location of the Tumor,ADRENAL GLAND,CRF
2244,CDISCPILOT01,TR,01-701-1133,TRSEQ,36,TRLOC,Location of the Tumor,ADRENAL GLAND,CRF
2245,CDISCPILOT01,TR,01-701-1133,TRSEQ,37,TRLOC,Location of the Tumor,LYMPH NODE,CRF
2246,CDISCPILOT01,TR,01-701-1133,TRSEQ,38,TRLOC,Location of the Tumor,LYMPH NODE,CRF
2247,CDISCPILOT01,TR,01-701-1133,TRSEQ,39,TRLOC,Location of the Tumor,LYMPH NODE,CRF
2248,CDISCPILOT01,TR,01-701-1133,TRSEQ,40,TRLOC,Location of the Tumor,BLADDER,CRF
2249,CDISCPILOT01,TR,01-701-1133,TRSEQ,41,TRLOC,Location of the Tumor,BLADDER,CRF
2250,CDISCPILOT01,TR,01-701-1133,TRSEQ,42,TRLOC,Location of the Tumor,BLADDER,CRF
2251,CDISCPILOT01,TR,01-701-1133,TRSEQ,43,TRLOC,Location of the Tumor,BODY,CRF
2252,CDISCPILOT01,TR,01-701-1133,TRSEQ,44,TRLOC,Location of the Tumor,BODY,CRF
2253,CDISCPILOT01,TR,01-701-1133,TRSEQ,45,TRLOC,Location of the Tumor,BODY,CRF
2254,CDISCPILOT01,TR,01-701-1133,TRSEQ,46,TRLOC,Location of the Tumor,LYMPH NODE,CRF
2255,CDISCPILOT01,TR,01-701-1133,TRSEQ,47,TRLOC,Location of the Tumor,LYMPH NODE,CRF
2256,CDISCPILOT01,TR,01-701-1133,TRSEQ,48,TRLOC,Location of the Tumor,LYMPH NODE,CRF
2257,CDISCPILOT01,TR,01-701-1133,TRSEQ,49,TRLOC,Location of the Tumor,BLADDER,CRF
2258,CDISCPILOT01,TR,01-701-1133,TRSEQ,50,TRLOC,Location of the Tumor,BLADDER,CRF
2259,CDISCPILOT01,TR,01-701-1133,TRSEQ,51,TRLOC,Location of the Tumor,BLADDER,CRF
2260,CDISCPILOT01,TR,01-701-1133,TRSEQ,52,TRLOC,Location of the Tumor,BODY,CRF
2261,CDISCPILOT01,TR,01-701-1133,TRSEQ,53,TRLOC,Location of the Tumor,BODY,CRF
2262,CDISCPILOT01,TR,01-701-1133,TRSEQ,54,TRLOC,Location of the Tumor,BODY,CRF
2263,CDISCPILOT01,TR,01-701-1133,TRSEQ,55,TRLOC,Location of the Tumor,BONE,CRF
2264,CDISCPILOT01,TR,01-701-1133,TRSEQ,56,TRLOC,Location of the Tumor,BONE,CRF
2265,CDISCPILOT01,TR,01-701-1133,TRSEQ,57,TRLOC,Location of the Tumor,BONE,CRF
2266,CDISCPILOT01,TR,01-701-1133,TRSEQ,58,TRLOC,Location of the Tumor,BREAST,CRF
2267,CDISCPILOT01,TR,01-701-1133,TRSEQ,59,TRLOC,Location of the Tumor,BREAST,CRF
2268,CDISCPILOT01,TR,01-701-1133,TRSEQ,60,TRLOC,Location of the Tumor,BREAST,CRF
2269,CDISCPILOT01,TR,01-701-1133,TRSEQ,61,TRLOC,Location of the Tumor,,CRF
2270,CDISCPILOT01,TR,01-701-1133,TRSEQ,62,TRLOC,Location of the Tumor,,CRF
2271,CDISCPILOT01,TR,01-701-1133,TRSEQ,63,TRLOC,Location of the Tumor,,CRF
2272,CDISCPILOT01,TR,01-701-1133,TRSEQ,64,TRLOC,Location of the Tumor,,CRF
2273,CDISCPILOT01,TR,01-701-1133,TRSEQ,65,TRLOC,Location of the Tumor,,CRF
2274,CDISCPILOT01,TR,01-701-1133,TRSEQ,66,TRLOC,Location of the Tumor,,CRF
2275,CDISCPILOT01,TR,01-701-1133,TRSEQ,67,TRLOC,Location of the Tumor,,CRF
2276,CDISCPILOT01,TR,01-701-1133,TRSEQ,68,TRLOC,Location of the Tumor,,CRF
2277,CDISCPILOT01,TR,01-701-1133,TRSEQ,69,TRLOC,Location of the Tumor,,CRF
2278,CDISCPILOT01,TR,01-701-1133,TRSEQ,70,TRLOC,Location of the Tumor,,CRF
2279,CDISCPILOT01,TR,01-701-1133,TRSEQ,71,TRLOC,Location of the Tumor,,CRF
2280,CDISCPILOT01,TR,01-701-1133,TRSEQ,72,TRLOC,Location of the Tumor,,CRF
2281,CDISCPILOT01,TR,01-701-1133,TRSEQ,73,TRLOC,Location of the Tumor,,CRF
2282,CDISCPILOT01,TR,01-701-1133,TRSEQ,74,TRLOC,Location of the Tumor,,CRF
2283,CDISCPILOT01,TR,01-701-1133,TRSEQ,75,TRLOC,Location of the Tumor,,CRF
2284,CDISCPILOT01,TR,01-701-1133,TRSEQ,76,TRLOC,Location of the Tumor,,CRF
2285,CDISCPILOT01,TR,01-701-1133,TRSEQ,77,TRLOC,Location of the Tumor,,CRF
2286,CDISCPILOT01,TR,01-701-1133,TRSEQ,78,TRLOC,Location of the Tumor,,CRF
2287,CDISCPILOT01,TR,01-701-1133,TRSEQ,79,TRLOC,Location of the Tumor,LYMPH NODE,CRF
2288,CDISCPILOT01,TR,01-701-1133,TRSEQ,80,TRLOC,Location of the Tumor,LYMPH NODE,CRF
2289,CDISCPILOT01,TR,01-701-1133,TRSEQ,81,TRLOC,Location of the Tumor,LYMPH NODE,CRF
2290,CDISCPILOT01,TR,01-701-1133,TRSEQ,82,TRLOC,Location of the Tumor,BLADDER,CRF
2291,CDISCPILOT01,TR,01-701-1133,TRSEQ,83,TRLOC,Location of the Tumor,BLADDER,CRF
2292,CDISCPILOT01,TR,01-701-1133,TRSEQ,84,TRLOC,Location of the Tumor,BLADDER,CRF
2293,CDISCPILOT01,TR,01-701-1133,TRSEQ,85,TRLOC,Location of the Tumor,BODY,CRF
2294,CDISCPILOT01,TR,01-701-1133,TRSEQ,86,TRLOC,Location of the Tumor,BODY,CRF
2295,CDISCPILOT01,TR,01-701-1133,TRSEQ,87,TRLOC,Location of the Tumor,BODY,CRF
2296,CDISCPILOT01,TR,01-701-1133,TRSEQ,88,TRLOC,Location of the Tumor,BONE,CRF
2297,CDISCPILOT01,TR,01-701-1133,TRSEQ,89,TRLOC,Location of the Tumor,BONE,CRF
2298,CDISCPILOT01,TR,01-701-1133,TRSEQ,90,TRLOC,Location of the Tumor,BONE,CRF
2299,CDISCPILOT01,TR,01-701-1133,TRSEQ,91,TRLOC,Location of the Tumor,BREAST,CRF
2300,CDISCPILOT01,TR,01-701-1133,TRSEQ,92,TRLOC,Location of the Tumor,BREAST,CRF
2301,CDISCPILOT01,TR,01-701-1133,TRSEQ,93,TRLOC,Location of the Tumor,BREAST,CRF
2302,CDISCPILOT01,TR,01-701-1133,TRSEQ,94,TRLOC,Location of the Tumor,BLADDER,CRF
2303,CDISCPILOT01,TR,01-701-1133,TRSEQ,95,TRLOC,Location of the Tumor,BLADDER,CRF
2304,CDISCPILOT01,TR,01-701-1133,TRSEQ,96,TRLOC,Location of the Tumor,BLADDER,CRF
2305,CDISCPILOT01,TR,01-701-1133,TRSEQ,97,TRLOC,Location of the Tumor,BODY,CRF
2306,CDISCPILOT01,TR,01-701-1133,TRSEQ,98,TRLOC,Location of the Tumor,BODY,CRF
2307,CDISCPILOT01,TR,01-701-1133,TRSEQ,99,TRLOC,Location of the Tumor,BODY,CRF
2308,CDISCPILOT01,TR,01-701-1133,TRSEQ,100,TRLOC,Location of the Tumor,BONE,CRF
2309,CDISCPILOT01,TR,01-701-1133,TRSEQ,101,TRLOC,Location of the Tumor,BONE,CRF
2310,CDISCPILOT01,TR,01-701-1133,TRSEQ,102,TRLOC,Location of the Tumor,BONE,CRF
2311,CDISCPILOT01,TR,01-701-1133,TRSEQ,103,TRLOC,Location of the Tumor,BREAST,CRF
2312,CDISCPILOT01,TR,01-701-1133,TRSEQ,104,TRLOC,Location of the Tumor,BREAST,CRF
2313,CDISCPILOT01,TR,01-701-1133,TRSEQ,105,TRLOC,Location of the Tumor,BREAST,CRF
2314,CDISCPILOT01,TR,01-701-1133,TRSEQ,106,TRLOC,Location of the Tumor,CHEST,CRF
2315,CDISCPILOT01,TR,01-701-1133,TRSEQ,107,TRLOC,Location of the Tumor,CHEST,CRF
2316,CDISCPILOT01,TR,01-701-1133,TRSEQ,108,TRLOC,Location of the Tumor,CHEST,CRF
2317,CDISCPILOT01,TR,01-701-1133,TRSEQ,109,TRLOC,Location of the Tumor,BLADDER,CRF
2318,CDISCPILOT01,TR,01-701-1133,TRSEQ,110,TRLOC,Location of the Tumor,BLADDER,CRF
2319,CDISCPILOT01,TR,01-701-1133,TRSEQ,111,TRLOC,Location of the Tumor,BLADDER,CRF
2320,CDISCPILOT01,TR,01-701-1133,TRSEQ,112,TRLOC,Location of the Tumor,BODY,CRF
2321,CDISCPILOT01,TR,01-701-1133,TRSEQ,113,TRLOC,Location of the Tumor,BODY,CRF
2322,CDISCPILOT01,TR,01-701-1133,TRSEQ,114,TRLOC,Location of the Tumor,BODY,CRF
2323,CDISCPILOT01,TR,01-701-1133,TRSEQ,115,TRLOC,Location of the Tumor,BONE,CRF
2324,CDISCPILOT01,TR,01-701-1133,TRSEQ,116,TRLOC,Location of the Tumor,BONE,CRF
2325,CDISCPILOT01,TR,01-701-1133,TRSEQ,117,TRLOC,Location of the Tumor,BONE,CRF
2326,CDISCPILOT01,TR,01-701-1133,TRSEQ,118,TRLOC,Location of the Tumor,BREAST,CRF
2327,CDISCPILOT01,TR,01-701-1133,TRSEQ,119,TRLOC,Location of the Tumor,BREAST,CRF
2328,CDISCPILOT01,TR,01-701-1133,TRSEQ,120,TRLOC,Location of the Tumor,BREAST,CRF
2329,CDISCPILOT01,TR,01-701-1133,TRSEQ,121,TRLOC,Location of the Tumor,CHEST,CRF
2330,CDISCPILOT01,TR,01-701-1133,TRSEQ,122,TRLOC,Location of the Tumor,CHEST,CRF
2331,CDISCPILOT01,TR,01-701-1133,TRSEQ,123,TRLOC,Location of the Tumor,CHEST,CRF
2332,CDISCPILOT01,TR,01-701-1133,TRSEQ,124,TRLOC,Location of the Tumor,,CRF
2333,CDISCPILOT01,TR,01-701-1133,TRSEQ,125,TRLOC,Location of the Tumor,,CRF
2334,CDISCPILOT01,TR,01-701-1133,TRSEQ,126,TRLOC,Location of the Tumor,,CRF
2335,CDISCPILOT01,TR,01-701-1133,TRSEQ,127,TRLOC,Location of the Tumor,,CRF
2336,CDISCPILOT01,TR,01-701-1133,TRSEQ,128,TRLOC,Location of the Tumor,,CRF
2337,CDISCPILOT01,TR,01-701-1133,TRSEQ,129,TRLOC,Location of the Tumor,,CRF
2338,CDISCPILOT01,TR,01-701-1133,TRSEQ,130,TRLOC,Location of the Tumor,,CRF
2339,CDISCPILOT01,TR,01-701-1133,TRSEQ,131,TRLOC,Location of the Tumor,,CRF
2340,CDISCPILOT01,TR,01-701-1133,TRSEQ,132,TRLOC,Location of the Tumor,,CRF
2341,CDISCPILOT01,TR,01-701-1133,TRSEQ,133,TRLOC,Location of the Tumor,,CRF
2342,CDISCPILOT01,TR,01-701-1133,TRSEQ,134,TRLOC,Location of the Tumor,,CRF
2343,CDISCPILOT01,TR,01-701-1133,TRSEQ,135,TRLOC,Location of the Tumor,,CRF
2344,CDISCPILOT01,TR,01-701-1133,TRSEQ,136,TRLOC,Location of the Tumor,,CRF
2345,CDISCPILOT01,TR,01-701-1133,TRSEQ,137,TRLOC,Location of the Tumor,,CRF
2346,CDISCPILOT01,TR,01-701-1133,TRSEQ,138,TRLOC,Location of the Tumor,,CRF
2347,CDISCPILOT01,TR,01-701-1133,TRSEQ,139,TRLOC,Location of the Tumor,,CRF
2348,CDISCPILOT01,TR,01-701-1133,TRSEQ,140,TRLOC,Location of the Tumor,,CRF
2349,CDISCPILOT01,TR,01-701-1133,TRSEQ,141,TRLOC,Location of the Tumor,,CRF
2350,CDISCPILOT01,TR,01-701-1133,TRSEQ,142,TRLOC,Location of the Tumor,ADRENAL GLAND,CRF
2351,CDISCPILOT01,TR,01-701-1133,TRSEQ,143,TRLOC,Location of the Tumor,ADRENAL GLAND,CRF
2352,CDISCPILOT01,TR,01-701-1133,TRSEQ,144,TRLOC,Location of the Tumor,ADRENAL GLAND,CRF
2353,CDISCPILOT01,TR,01-701-1133,TRSEQ,145,TRLOC,Location of the Tumor,LYMPH NODE,CRF
2354,CDISCPILOT01,TR,01-701-1133,TRSEQ,146,TRLOC,Location of the Tumor,LYMPH NODE,CRF
2355,CDISCPILOT01,TR,01-701-1133,TRSEQ,147,TRLOC,Location of the Tumor,LYMPH NODE,CRF
2356,CDISCPILOT01,TR,01-701-1133,TRSEQ,148,TRLOC,Location of the Tumor,BLADDER,CRF
2357,CDISCPILOT01,TR,01-701-1133,TRSEQ,149,TRLOC,Location of the Tumor,BLADDER,CRF
2358,CDISCPILOT01,TR,01-701-1133,TRSEQ,150,TRLOC,Location of the Tumor,BLADDER,CRF
2359,CDISCPILOT01,TR,01-701-1133,TRSEQ,151,TRLOC,Location of the Tumor,BODY,CRF
2360,CDISCPILOT01,TR,01-701-1133,TRSEQ,152,TRLOC,Location of the Tumor,BODY,CRF
2361,CDISCPILOT01,TR,01-701-1133,TRSEQ,153,TRLOC,Location of the Tumor,BODY,CRF
2362,CDISCPILOT01,TR,01-701-1133,TRSEQ,154,TRLOC,Location of the Tumor,BONE,CRF
2363,CDISCPILOT01,TR,01-701-1133,TRSEQ,155,TRLOC,Location of the Tumor,BONE,CRF
2364,CDISCPILOT01,TR,01-701-1133,TRSEQ,156,TRLOC,Location of the Tumor,BONE,CRF
2365,CDISCPILOT01,TR,01-701-1133,TRSEQ,157,TRLOC,Location of the Tumor,ABDOMINAL CAVITY,CRF
2366,CDISCPILOT01,TR,01-701-1133,TRSEQ,158,TRLOC,Location of the Tumor,ABDOMINAL CAVITY,CRF
2367,CDISCPILOT01,TR,01-701-1133,TRSEQ,159,TRLOC,Location of the Tumor,ABDOMINAL CAVITY,CRF
2368,CDISCPILOT01,TR,01-701-1133,TRSEQ,160,TRLOC,Location of the Tumor,ADRENAL GLAND,CRF
2369,CDISCPILOT01,TR,01-701-1133,TRSEQ,161,TRLOC,Location of the Tumor,ADRENAL GLAND,CRF
2370,CDISCPILOT01,TR,01-701-1133,TRSEQ,162,TRLOC,Location of the Tumor,ADRENAL GLAND,CRF
2371,CDISCPILOT01,TR,01-701-1133,TRSEQ,163,TRLOC,Location of the Tumor,LYMPH NODE,CRF
2372,CDISCPILOT01,TR,01-701-1133,TRSEQ,164,TRLOC,Location of the Tumor,LYMPH NODE,CRF
2373,CDISCPILOT01,TR,01-701-1133,TRSEQ,165,TRLOC,Location of the Tumor,LYMPH NODE,CRF
2374,CDISCPILOT01,TR,01-701-1133,TRSEQ,166,TRLOC,Location of the Tumor,BLADDER,CRF
2375,CDISCPILOT01,TR,01-701-1133,TRSEQ,167,TRLOC,Location of the Tumor,BLADDER,CRF
2376,CDISCPILOT01,TR,01-701-1133,TRSEQ,168,TRLOC,Location of the Tumor,BLADDER,CRF
2377,CDISCPILOT01,TR,01-701-1133,TRSEQ,169,TRLOC,Location of the Tumor,BODY,CRF
2378,CDISCPILOT01,TR,01-701-1133,TRSEQ,170,TRLOC,Location of the Tumor,BODY,CRF
2379,CDISCPILOT01,TR,01-701-1133,TRSEQ,171,TRLOC,Location of the Tumor,BODY,CRF
2380,CDISCPILOT01,TR,01-701-1133,TRSEQ,172,TRLOC,Location of the Tumor,ABDOMINAL CAVITY,CRF
2381,CDISCPILOT01,TR,01-701-1133,TRSEQ,173,TRLOC,Location of the Tumor,ABDOMINAL CAVITY,CRF
2382,CDISCPILOT01,TR,01-701-1133,TRSEQ,174,TRLOC,Location of the Tumor,ABDOMINAL CAVITY,CRF
2383,CDISCPILOT01,TR,01-701-1133,TRSEQ,175,TRLOC,Location of the Tumor,ADRENAL GLAND,CRF
2384,CDISCPILOT01,TR,01-701-1133,TRSEQ,176,TRLOC,Location of the Tumor,ADRENAL GLAND,CRF
2385,CDISCPILOT01,TR,01-701-1133,TRSEQ,177,TRLOC,Location of the Tumor,ADRENAL GLAND,CRF
2386,CDISCPILOT01,TR,01-701-1133,TRSEQ,178,TRLOC,Location of the Tumor,LYMPH NODE,CRF
2387,CDISCPILOT01,TR,01-701-1133,TRSEQ,179,TRLOC,Location of the Tumor,LYMPH NODE,CRF
2388,CDISCPILOT01,TR,01-701-1133,TRSEQ,180,TRLOC,Location of the Tumor,LYMPH NODE,CRF
2389,CDISCPILOT01,TR,01-701-1133,TRSEQ,181,TRLOC,Location of the Tumor,BLADDER,CRF
2390,CDISCPILOT01,TR,01-701-1133,TRSEQ,182,TRLOC,Location of the Tumor,BLADDER,CRF
2391,CDISCPILOT01,TR,01-701-1133,TRSEQ,183,TRLOC,Location of the Tumor,BLADDER,CRF
2392,CDISCPILOT01,TR,01-701-1133,TRSEQ,184,TRLOC,Location of the Tumor,BODY,CRF
2393,CDISCPILOT01,TR,01-701-1133,TRSEQ,185,TRLOC,Location of the Tumor,BODY,CRF
2394,CDISCPILOT01,TR,01-701-1133,TRSEQ,186,TRLOC,Location of the Tumor,BODY,CRF
2395,CDISCPILOT01,TR,01-701-1133,TRSEQ,187,TRLOC,Location of the Tumor,,CRF
2396,CDISCPILOT01,TR,01-701-1133,TRSEQ,188,TRLOC,Location of the Tumor,,CRF
2397,CDISCPILOT01,TR,01-701-1133,TRSEQ,189,TRLOC,Location of the Tumor,,CRF
2398,CDISCPILOT01,TR,01-701-1133,TRSEQ,190,TRLOC,Location of the Tumor,,CRF
2399,CDISCPILOT01,TR,01-701-1133,TRSEQ,191,TRLOC,Location of the Tumor,,CRF
2400,CDISCPILOT01,TR,01-701-1133,TRSEQ,192,TRLOC,Location of the Tumor,,CRF
2401,CDISCPILOT01,TR,01-701-1133,TRSEQ,193,TRLOC,Location of the Tumor,,CRF
2402,CDISCPILOT01,TR,01-701-1133,TRSEQ,194,TRLOC,Location of the Tumor,,CRF
2403,CDISCPILOT01,TR,01-701-1133,TRSEQ,195,TRLOC,Location of the Tumor,,CRF
2404,CDISCPILOT01,TR,01-701-1133,TRSEQ,196,TRLOC,Location of the Tumor,,CRF
2405,CDISCPILOT01,TR,01-701-1133,TRSEQ,197,TRLOC,Location of the Tumor,,CRF
2406,CDISCPILOT01,TR,01-701-1133,TRSEQ,198,TRLOC,Location of the Tumor,,CRF
2407,CDISCPILOT01,TR,01-701-1133,TRSEQ,199,TRLOC,Location of the Tumor,,CRF
2408,CDISCPILOT01,TR,01-701-1133,TRSEQ,200,TRLOC,Location of the Tumor,,CRF
2409,CDISCPILOT01,TR,01-701-1133,TRSEQ,201,TRLOC,Location of the Tumor,,CRF
2410,CDISCPILOT01,TR,01-701-1133,TRSEQ,202,TRLOC,Location of the Tumor,,CRF
2411,CDISCPILOT01,TR,01-701-1133,TRSEQ,203,TRLOC,Location of the Tumor,,CRF
2412,CDISCPILOT01,TR,01-701-1133,TRSEQ,204,TRLOC,Location of the Tumor,,CRF
2413,CDISCPILOT01,TR,01-701-1133,TRSEQ,205,TRLOC,Location of the Tumor,BLADDER,CRF
2414,CDISCPILOT01,TR,01-701-1133,TRSEQ,206,TRLOC,Location of the Tumor,BLADDER,CRF
2415,CDISCPILOT01,TR,01-701-1133,TRSEQ,207,TRLOC,Location of the Tumor,BLADDER,CRF
2416,CDISCPILOT01,TR,01-701-1133,TRSEQ,208,TRLOC,Location of the Tumor,BODY,CRF
2417,CDISCPILOT01,TR,01-701-1133,TRSEQ,209,TRLOC,Location of the Tumor,BODY,CRF
2418,CDISCPILOT01,TR,01-701-1133,TRSEQ,210,TRLOC,Location of the Tumor,BODY,CRF
2419,CDISCPILOT01,TR,01-701-1133,TRSEQ,211,TRLOC,Location of the Tumor,BONE,CRF
2420,CDISCPILOT01,TR,01-701-1133,TRSEQ,212,TRLOC,Location of the Tumor,BONE,CRF
2421,CDISCPILOT01,TR,01-701-1133,TRSEQ,213,TRLOC,Location of the Tumor,BONE,CRF
2422,CDISCPILOT01,TR,01-701-1133,TRSEQ,214,TRLOC,Location of the Tumor,BREAST,CRF
2423,CDISCPILOT01,TR,01-701-1133,TRSEQ,215,TRLOC,Location of the Tumor,BREAST,CRF
2424,CDISCPILOT01,TR,01-701-1133,TRSEQ,216,TRLOC,Location of the Tumor,BREAST,CRF
2425,CDISCPILOT01,TR,01-701-1133,TRSEQ,217,TRLOC,Location of the Tumor,CHEST,CRF
2426,CDISCPILOT01,TR,01-701-1133,TRSEQ,218,TRLOC,Location of the Tumor,CHEST,CRF
2427,CDISCPILOT01,TR,01-701-1133,TRSEQ,219,TRLOC,Location of the Tumor,CHEST,CRF
2428,CDISCPILOT01,TR,01-701-1133,TRSEQ,220,TRLOC,Location of the Tumor,ADRENAL GLAND,CRF
2429,CDISCPILOT01,TR,01-701-1133,TRSEQ,221,TRLOC,Location of the Tumor,ADRENAL GLAND,CRF
2430,CDISCPILOT01,TR,01-701-1133,TRSEQ,222,TRLOC,Location of the Tumor,ADRENAL GLAND,CRF
2431,CDISCPILOT01,TR,01-701-1133,TRSEQ,223,TRLOC,Location of the Tumor,LYMPH NODE,CRF
2432,CDISCPILOT01,TR,01-701-1133,TRSEQ,224,TRLOC,Location of the Tumor,LYMPH NODE,CRF
2433,CDISCPILOT01,TR,01-701-1133,TRSEQ,225,TRLOC,Location of the Tumor,LYMPH NODE,CRF
2434,CDISCPILOT01,TR,01-701-1133,TRSEQ,226,TRLOC,Location of the Tumor,BLADDER,CRF
2435,CDISCPILOT01,TR,01-701-1133,TRSEQ,227,TRLOC,Location of the Tumor,BLADDER,CRF
2436,CDISCPILOT01,TR,01-701-1133,TRSEQ,228,TRLOC,Location of the Tumor,BLADDER,CRF
2437,CDISCPILOT01,TR,01-701-1133,TRSEQ,229,TRLOC,Location of the Tumor,BODY,CRF
2438,CDISCPILOT01,TR,01-701-1133,TRSEQ,230,TRLOC,Location of the Tumor,BODY,CRF
2439,CDISCPILOT01,TR,01-701-1133,TRSEQ,231,TRLOC,Location of the Tumor,BODY,CRF
2440,CDISCPILOT01,TR,01-701-1133,TRSEQ,232,TRLOC,Location of the Tumor,BONE,CRF
2441,CDISCPILOT01,TR,01-701-1133,TRSEQ,233,TRLOC,Location of the Tumor,BONE,CRF
2442,CDISCPILOT01,TR,01-701-1133,TRSEQ,234,TRLOC,Location of the Tumor,BONE,CRF
2443,CDISCPILOT01,TR,01-701-1133,TRSEQ,235,TRLOC,Location of the Tumor,LYMPH NODE,CRF
2444,CDISCPILOT01,TR,01-701-1133,TRSEQ,236,TRLOC,Location of the Tumor,LYMPH NODE,CRF
2445,CDISCPILOT01,TR,01-701-1133,TRSEQ,237,TRLOC,Location of the Tumor,LYMPH NODE,CRF
2446,CDISCPILOT01,TR,01-701-1133,TRSEQ,238,TRLOC,Location of the Tumor,BLADDER,CRF
2447,CDISCPILOT01,TR,01-701-1133,TRSEQ,239,TRLOC,Location of the Tumor,BLADDER,CRF
2448,CDISCPILOT01,TR,01-701-1133,TRSEQ,240,TRLOC,Location of the Tumor,BLADDER,CRF
2449,CDISCPILOT01,TR,01-701-1133,TRSEQ,241,TRLOC,Location of the Tumor,BODY,CRF
2450,CDISCPILOT01,TR,01-701-1133,TRSEQ,242,TRLOC,Location of the Tumor,BODY,CRF
2451,CDISCPILOT01,TR,01-701-1133,TRSEQ,243,TRLOC,Location of the Tumor,BODY,CRF
2452,CDISCPILOT01,TR,01-701-1133,TRSEQ,244,TRLOC,Location of the Tumor,BONE,CRF
2453,CDISCPILOT01,TR,01-701-1133,TRSEQ,245,TRLOC,Location of the Tumor,BONE,CRF
2454,CDISCPILOT01,TR,01-701-1133,TRSEQ,246,TRLOC,Location of the Tumor,BONE,CRF
2455,CDISCPILOT01,TR,01-701-1133,TRSEQ,247,TRLOC,Location of the Tumor,BREAST,CRF
2456,CDISCPILOT01,TR,01-701-1133,TRSEQ,248,TRLOC,Location of the Tumor,BREAST,CRF
2457,CDISCPILOT01,TR,01-701-1133,TRSEQ,249,TRLOC,Location of the Tumor,BREAST,CRF
2458,CDISCPILOT01,TR,01-701-1133,TRSEQ,250,TRLOC,Location of the Tumor,,CRF
2459,CDISCPILOT01,TR,01-701-1133,TRSEQ,251,TRLOC,Location of the Tumor,,CRF
2460,CDISCPILOT01,TR,01-701-1133,TRSEQ,252,TRLOC,Location of the Tumor,,CRF
2461,CDISCPILOT01,TR,01-701-1133,TRSEQ,253,TRLOC,Location of the Tumor,,CRF
2462,CDISCPILOT01,TR,01-701-1133,TRSEQ,254,TRLOC,Location of the Tumor,,CRF
2463,CDISCPILOT01,TR,01-701-1133,TRSEQ,255,TRLOC,Location of the Tumor,,CRF
2464,CDISCPILOT01,TR,01-701-1133,TRSEQ,256,TRLOC,Location of the Tumor,,CRF
2465,CDISCPILOT01,TR,01-701-1133,TRSEQ,257,TRLOC,Location of the Tumor,,CRF
2466,CDISCPILOT01,TR,01-701-1133,TRSEQ,258,TRLOC,Location of the Tumor,,CRF
2467,CDISCPILOT01,TR,01-701-1133,TRSEQ,259,TRLOC,Location of the Tumor,,CRF
2468,CDISCPILOT01,TR,01-701-1133,TRSEQ,260,TRLOC,Location of the Tumor,,CRF
2469,CDISCPILOT01,TR,01-701-1133,TRSEQ,261,TRLOC,Location of the Tumor,,CRF
2470,CDISCPILOT01,TR,01-701-1133,TRSEQ,262,TRLOC,Location of the Tumor,,CRF
2471,CDISCPILOT01,TR,01-701-1133,TRSEQ,263,TRLOC,Location of the Tumor,,CRF
2472,CDISCPILOT01,TR,01-701-1133,TRSEQ,264,TRLOC,Location of the Tumor,,CRF
2473,CDISCPILOT01,TR,01-701-1133,TRSEQ,265,TRLOC,Location of the Tumor,,CRF
2474,CDISCPILOT01,TR,01-701-1133,TRSEQ,266,TRLOC,Location of the Tumor,,CRF
2475,CDISCPILOT01,TR,01-701-1133,TRSEQ,267,TRLOC,Location of the Tumor,,CRF
2476,CDISCPILOT01,TR,01-701-1133,TRSEQ,268,TRLOC,Location of the Tumor,LYMPH NODE,CRF
2477,CDISCPILOT01,TR,01-701-1133,TRSEQ,269,TRLOC,Location of the Tumor,LYMPH NODE,CRF
2478,CDISCPILOT01,TR,01-701-1133,TRSEQ,270,TRLOC,Location of the Tumor,LYMPH NODE,CRF
2479,CDISCPILOT01,TR,01-701-1133,TRSEQ,271,TRLOC,Location of the Tumor,BLADDER,CRF
2480,CDISCPILOT01,TR,01-701-1133,TRSEQ,272,TRLOC,Location of the Tumor,BLADDER,CRF
2481,CDISCPILOT01,TR,01-701-1133,TRSEQ,273,TRLOC,Location of the Tumor,BLADDER,CRF
2482,CDISCPILOT01,TR,01-701-1133,TRSEQ,274,TRLOC,Location of the Tumor,BODY,CRF
2483,CDISCPILOT01,TR,01-701-1133,TRSEQ,275,TRLOC,Location of the Tumor,BODY,CRF
2484,CDISCPILOT01,TR,01-701-1133,TRSEQ,276,TRLOC,Location of the Tumor,BODY,CRF
2485,CDISCPILOT01,TR,01-701-1133,TRSEQ,277,TRLOC,Location of the Tumor,BONE,CRF
2486,CDISCPILOT01,TR,01-701-1133,TRSEQ,278,TRLOC,Location of the Tumor,BONE,CRF
2487,CDISCPILOT01,TR,01-701-1133,TRSEQ,279,TRLOC,Location of the Tumor,BONE,CRF
2488,CDISCPILOT01,TR,01-701-1133,TRSEQ,280,TRLOC,Location of the Tumor,BREAST,CRF
