rownames,STUDYID,DOMAIN,USUBJID,TRSEQ,TRGRPID,TRLNKGRP,TRLNKID,TRTESTCD,TRTEST,TRORRES,TRORRESU,TRSTRESC,TRSTRESN,TRSTRESU,TRSTAT,TRREASND,TRMETHOD,TREVAL,TREVALID,TRACPTFL,VISITNUM,VISIT,TRDTC,TRDY
1,CDISCPILOT01,TR,01-701-1015,1,TARGET,A1,T01,DIAMETER,Diameter,10,mm,10,10,mm,,,CT SCAN,INVESTIGATOR,,,3,BASELINE,2014-01,1
2,CDISCPILOT01,TR,01-701-1015,2,TARGET,A1,T01,LDIAM,Longest Diameter,10,mm,10,10,mm,,,CT SCAN,INVESTIGATOR,,,3,BASELINE,2014-01,1
3,CDISCPILOT01,TR,01-701-1015,3,TARGET,A1,T01,LPERP,Longest Perpendicular,9,mm,9,9,mm,,,CT SCAN,INVESTIGATOR,,,3,BASELINE,2014-01,1
4,CDISCPILOT01,TR,01-701-1015,4,TARGET,A1,T02,DIAMETER,Diameter,16,mm,16,16,mm,,,CT SCAN,INVESTIGATOR,,,3,BASELINE,2014-01,1
5,CDISCPILOT01,TR,01-701-1015,5,TARGET,A1,T02,LDIAM,Longest Diameter,17.6,mm,17.6,17.6,mm,,,CT SCAN,INVESTIGATOR,,,3,BASELINE,2014-01,1
6,CDISCPILOT01,TR,01-701-1015,6,TARGET,A1,T02,LPERP,Longest Perpendicular,16,mm,16,16,mm,,,CT SCAN,INVESTIGATOR,,,3,BASELINE,2014-01,1
7,CDISCPILOT01,TR,01-701-1015,7,TARGET,A1,T03,DIAMETER,Diameter,13,mm,13,13,mm,,,CT SCAN,INVESTIGATOR,,,3,BASELINE,2014-01,1
8,CDISCPILOT01,TR,01-701-1015,8,TARGET,A1,T03,LDIAM,Longest Diameter,13,mm,13,13,mm,,,CT SCAN,INVESTIGATOR,,,3,BASELINE,2014-01,1
9,CDISCPILOT01,TR,01-701-1015,9,TARGET,A1,T03,LPERP,Longest Perpendicular,11.7,mm,11.7,11.700000000000001,mm,,,CT SCAN,INVESTIGATOR,,,3,BASELINE,2014-01,1
10,CDISCPILOT01,TR,01-701-1015,10,TARGET,A1,T04,DIAMETER,Diameter,16,mm,16,16,mm,,,CT SCAN,INVESTIGATOR,,,3,BASELINE,2014-01,1
11,CDISCPILOT01,TR,01-701-1015,11,TARGET,A1,T04,LDIAM,Longest Diameter,16,mm,16,16,mm,,,CT SCAN,INVESTIGATOR,,,3,BASELINE,2014-01,1
12,CDISCPILOT01,TR,01-701-1015,12,TARGET,A1,T04,LPERP,Longest Perpendicular,14.4,mm,14.4,14.4,mm,,,CT SCAN,INVESTIGATOR,,,3,BASELINE,2014-01,1
13,CDISCPILOT01,TR,01-701-1015,13,TARGET,A1,T05,DIAMETER,Diameter,18,mm,18,18,mm,,,CT SCAN,INVESTIGATOR,,,3,BASELINE,2014-01,1
14,CDISCPILOT01,TR,01-701-1015,14,TARGET,A1,T05,LDIAM,Longest Diameter,18,mm,18,18,mm,,,CT SCAN,INVESTIGATOR,,,3,BASELINE,2014-01,1
15,CDISCPILOT01,TR,01-701-1015,15,TARGET,A1,T05,LPERP,Longest Perpendicular,16.2,mm,16.2,16.2,mm,,,CT SCAN,INVESTIGATOR,,,3,BASELINE,2014-01,1
16,CDISCPILOT01,TR,01-701-1015,16,TARGET,A1,,SUMDIAM,Sum of Diameter,73,mm,73,73,mm,,,CT SCAN,INVESTIGATOR,,,3,BASELINE,2014-01,1
17,CDISCPILOT01,TR,01-701-1015,17,NON-TARGET,A1,NT01,TUMSTATE,Tumor State,PRESENT,,PRESENT,,,,,CT SCAN,INVESTIGATOR,,,3,BASELINE,2014-01-02,1
18,CDISCPILOT01,TR,01-701-1015,18,NON-TARGET,A1,NT02,TUMSTATE,Tumor State,PRESENT,,PRESENT,,,,,CT SCAN,INVESTIGATOR,,,3,BASELINE,2014-01-02,1
19,CDISCPILOT01,TR,01-701-1015,19,NON-TARGET,A1,NT03,TUMSTATE,Tumor State,PRESENT,,PRESENT,,,,,CT SCAN,INVESTIGATOR,,,3,BASELINE,2014-01-02,1
20,CDISCPILOT01,TR,01-701-1015,20,NON-TARGET,A1,NT04,TUMSTATE,Tumor State,PRESENT,,PRESENT,,,,,CT SCAN,INVESTIGATOR,,,3,BASELINE,2014-01-02,1
21,CDISCPILOT01,TR,01-701-1015,21,NON-TARGET,A1,NT05,TUMSTATE,Tumor State,PRESENT,,PRESENT,,,,,CT SCAN,INVESTIGATOR,,,3,BASELINE,2014-01-02,1
22,CDISCPILOT01,TR,01-701-1015,22,NON-TARGET,R1-A1,R1-NT01,TUMSTATE,Tumor State,PRESENT,,PRESENT,,,,,CT SCAN,INDEPENDENT ASSESSOR,RADIOLOGIST 1,Y,3,BASELINE,2014-01-02,1
23,CDISCPILOT01,TR,01-701-1015,23,NON-TARGET,R1-A1,R1-NT02,TUMSTATE,Tumor State,PRESENT,,PRESENT,,,,,CT SCAN,INDEPENDENT ASSESSOR,RADIOLOGIST 1,Y,3,BASELINE,2014-01-02,1
24,CDISCPILOT01,TR,01-701-1015,24,NON-TARGET,R1-A1,R1-NT03,TUMSTATE,Tumor State,PRESENT,,PRESENT,,,,,CT SCAN,INDEPENDENT ASSESSOR,RADIOLOGIST 1,Y,3,BASELINE,2014-01-02,1
25,CDISCPILOT01,TR,01-701-1015,25,NON-TARGET,R1-A1,R1-NT04,TUMSTATE,Tumor State,PRESENT,,PRESENT,,,,,CT SCAN,INDEPENDENT ASSESSOR,RADIOLOGIST 1,Y,3,BASELINE,2014-01-02,1
26,CDISCPILOT01,TR,01-701-1015,26,NON-TARGET,R1-A1,R1-NT05,TUMSTATE,Tumor State,PRESENT,,PRESENT,,,,,CT SCAN,INDEPENDENT ASSESSOR,RADIOLOGIST 1,Y,3,BASELINE,2014-01-02,1
27,CDISCPILOT01,TR,01-701-1015,27,NON-TARGET,R2-A1,R2-NT01,TUMSTATE,Tumor State,PRESENT,,PRESENT,,,,,CT SCAN,INDEPENDENT ASSESSOR,RADIOLOGIST 2,,3,BASELINE,2014-01-02,1
28,CDISCPILOT01,TR,01-701-1015,28,NON-TARGET,R2-A1,R2-NT02,TUMSTATE,Tumor State,PRESENT,,PRESENT,,,,,CT SCAN,INDEPENDENT ASSESSOR,RADIOLOGIST 2,,3,BASELINE,2014-01-02,1
29,CDISCPILOT01,TR,01-701-1015,29,NON-TARGET,R2-A1,R2-NT03,TUMSTATE,Tumor State,PRESENT,,PRESENT,,,,,CT SCAN,INDEPENDENT ASSESSOR,RADIOLOGIST 2,,3,BASELINE,2014-01-02,1
30,CDISCPILOT01,TR,01-701-1015,30,NON-TARGET,R2-A1,R2-NT04,TUMSTATE,Tumor State,PRESENT,,PRESENT,,,,,CT SCAN,INDEPENDENT ASSESSOR,RADIOLOGIST 2,,3,BASELINE,2014-01-02,1
31,CDISCPILOT01,TR,01-701-1015,31,NON-TARGET,R2-A1,R2-NT05,TUMSTATE,Tumor State,PRESENT,,PRESENT,,,,,CT SCAN,INDEPENDENT ASSESSOR,RADIOLOGIST 2,,3,BASELINE,2014-01-02,1
32,CDISCPILOT01,TR,01-701-1015,32,TARGET,R1-A1,R1-T01,DIAMETER,Diameter,13,mm,13,13,mm,,,CT SCAN,INDEPENDENT ASSESSOR,RADIOLOGIST 1,Y,3,BASELINE,2014-01-02,1
33,CDISCPILOT01,TR,01-701-1015,33,TARGET,R1-A1,R1-T01,LDIAM,Longest Diameter,13,mm,13,13,mm,,,CT SCAN,INDEPENDENT ASSESSOR,RADIOLOGIST 1,Y,3,BASELINE,2014-01-02,1
34,CDISCPILOT01,TR,01-701-1015,34,TARGET,R1-A1,R1-T01,LPERP,Longest Perpendicular,11.7,mm,11.7,11.700000000000001,mm,,,CT SCAN,INDEPENDENT ASSESSOR,RADIOLOGIST 1,Y,3,BASELINE,2014-01-02,1
35,CDISCPILOT01,TR,01-701-1015,35,TARGET,R1-A1,R1-T02,DIAMETER,Diameter,14,mm,14,14,mm,,,CT SCAN,INDEPENDENT ASSESSOR,RADIOLOGIST 1,Y,3,BASELINE,2014-01-02,1
36,CDISCPILOT01,TR,01-701-1015,36,TARGET,R1-A1,R1-T02,LDIAM,Longest Diameter,15.4,mm,15.4,15.400000000000002,mm,,,CT SCAN,INDEPENDENT ASSESSOR,RADIOLOGIST 1,Y,3,BASELINE,2014-01-02,1
37,CDISCPILOT01,TR,01-701-1015,37,TARGET,R1-A1,R1-T02,LPERP,Longest Perpendicular,14,mm,14,14,mm,,,CT SCAN,INDEPENDENT ASSESSOR,RADIOLOGIST 1,Y,3,BASELINE,2014-01-02,1
38,CDISCPILOT01,TR,01-701-1015,38,TARGET,R1-A1,R1-T03,DIAMETER,Diameter,15,mm,15,15,mm,,,CT SCAN,INDEPENDENT ASSESSOR,RADIOLOGIST 1,Y,3,BASELINE,2014-01-02,1
39,CDISCPILOT01,TR,01-701-1015,39,TARGET,R1-A1,R1-T03,LDIAM,Longest Diameter,15,mm,15,15,mm,,,CT SCAN,INDEPENDENT ASSESSOR,RADIOLOGIST 1,Y,3,BASELINE,2014-01-02,1
40,CDISCPILOT01,TR,01-701-1015,40,TARGET,R1-A1,R1-T03,LPERP,Longest Perpendicular,13.5,mm,13.5,13.5,mm,,,CT SCAN,INDEPENDENT ASSESSOR,RADIOLOGIST 1,Y,3,BASELINE,2014-01-02,1
41,CDISCPILOT01,TR,01-701-1015,41,TARGET,R1-A1,R1-T04,DIAMETER,Diameter,16,mm,16,16,mm,,,CT SCAN,INDEPENDENT ASSESSOR,RADIOLOGIST 1,Y,3,BASELINE,2014-01-02,1
42,CDISCPILOT01,TR,01-701-1015,42,TARGET,R1-A1,R1-T04,LDIAM,Longest Diameter,16,mm,16,16,mm,,,CT SCAN,INDEPENDENT ASSESSOR,RADIOLOGIST 1,Y,3,BASELINE,2014-01-02,1
43,CDISCPILOT01,TR,01-701-1015,43,TARGET,R1-A1,R1-T04,LPERP,Longest Perpendicular,14.4,mm,14.4,14.4,mm,,,CT SCAN,INDEPENDENT ASSESSOR,RADIOLOGIST 1,Y,3,BASELINE,2014-01-02,1
44,CDISCPILOT01,TR,01-701-1015,44,TARGET,R1-A1,R1-T05,DIAMETER,Diameter,19,mm,19,19,mm,,,CT SCAN,INDEPENDENT ASSESSOR,RADIOLOGIST 1,Y,3,BASELINE,2014-01-02,1
45,CDISCPILOT01,TR,01-701-1015,45,TARGET,R1-A1,R1-T05,LDIAM,Longest Diameter,19,mm,19,19,mm,,,CT SCAN,INDEPENDENT ASSESSOR,RADIOLOGIST 1,Y,3,BASELINE,2014-01-02,1
46,CDISCPILOT01,TR,01-701-1015,46,TARGET,R1-A1,R1-T05,LPERP,Longest Perpendicular,17.1,mm,17.1,17.1,mm,,,CT SCAN,INDEPENDENT ASSESSOR,RADIOLOGIST 1,Y,3,BASELINE,2014-01-02,1
47,CDISCPILOT01,TR,01-701-1015,47,TARGET,R2-A1,R2-T01,DIAMETER,Diameter,18,mm,18,18,mm,,,CT SCAN,INDEPENDENT ASSESSOR,RADIOLOGIST 2,,3,BASELINE,2014-01-02,1
48,CDISCPILOT01,TR,01-701-1015,48,TARGET,R2-A1,R2-T01,LDIAM,Longest Diameter,18,mm,18,18,mm,,,CT SCAN,INDEPENDENT ASSESSOR,RADIOLOGIST 2,,3,BASELINE,2014-01-02,1
49,CDISCPILOT01,TR,01-701-1015,49,TARGET,R2-A1,R2-T01,LPERP,Longest Perpendicular,16.2,mm,16.2,16.2,mm,,,CT SCAN,INDEPENDENT ASSESSOR,RADIOLOGIST 2,,3,BASELINE,2014-01-02,1
50,CDISCPILOT01,TR,01-701-1015,50,TARGET,R2-A1,R2-T02,DIAMETER,Diameter,12,mm,12,12,mm,,,CT SCAN,INDEPENDENT ASSESSOR,RADIOLOGIST 2,,3,BASELINE,2014-01-02,1
51,CDISCPILOT01,TR,01-701-1015,51,TARGET,R2-A1,R2-T02,LDIAM,Longest Diameter,12,mm,12,12,mm,,,CT SCAN,INDEPENDENT ASSESSOR,RADIOLOGIST 2,,3,BASELINE,2014-01-02,1
52,CDISCPILOT01,TR,01-701-1015,52,TARGET,R2-A1,R2-T02,LPERP,Longest Perpendicular,10.8,mm,10.8,10.8,mm,,,CT SCAN,INDEPENDENT ASSESSOR,RADIOLOGIST 2,,3,BASELINE,2014-01-02,1
53,CDISCPILOT01,TR,01-701-1015,53,TARGET,R2-A1,R2-T03,DIAMETER,Diameter,13,mm,13,13,mm,,,CT SCAN,INDEPENDENT ASSESSOR,RADIOLOGIST 2,,3,BASELINE,2014-01-02,1
54,CDISCPILOT01,TR,01-701-1015,54,TARGET,R2-A1,R2-T03,LDIAM,Longest Diameter,13,mm,13,13,mm,,,CT SCAN,INDEPENDENT ASSESSOR,RADIOLOGIST 2,,3,BASELINE,2014-01-02,1
55,CDISCPILOT01,TR,01-701-1015,55,TARGET,R2-A1,R2-T03,LPERP,Longest Perpendicular,11.7,mm,11.7,11.700000000000001,mm,,,CT SCAN,INDEPENDENT ASSESSOR,RADIOLOGIST 2,,3,BASELINE,2014-01-02,1
56,CDISCPILOT01,TR,01-701-1015,56,TARGET,R2-A1,R2-T04,DIAMETER,Diameter,15,mm,15,15,mm,,,CT SCAN,INDEPENDENT ASSESSOR,RADIOLOGIST 2,,3,BASELINE,2014-01-02,1
57,CDISCPILOT01,TR,01-701-1015,57,TARGET,R2-A1,R2-T04,LDIAM,Longest Diameter,15,mm,15,15,mm,,,CT SCAN,INDEPENDENT ASSESSOR,RADIOLOGIST 2,,3,BASELINE,2014-01-02,1
58,CDISCPILOT01,TR,01-701-1015,58,TARGET,R2-A1,R2-T04,LPERP,Longest Perpendicular,13.5,mm,13.5,13.5,mm,,,CT SCAN,INDEPENDENT ASSESSOR,RADIOLOGIST 2,,3,BASELINE,2014-01-02,1
59,CDISCPILOT01,TR,01-701-1015,59,TARGET,R2-A1,R2-T05,DIAMETER,Diameter,16,mm,16,16,mm,,,CT SCAN,INDEPENDENT ASSESSOR,RADIOLOGIST 2,,3,BASELINE,2014-01-02,1
60,CDISCPILOT01,TR,01-701-1015,60,TARGET,R2-A1,R2-T05,LDIAM,Longest Diameter,16,mm,16,16,mm,,,CT SCAN,INDEPENDENT ASSESSOR,RADIOLOGIST 2,,3,BASELINE,2014-01-02,1
61,CDISCPILOT01,TR,01-701-1015,61,TARGET,R2-A1,R2-T05,LPERP,Longest Perpendicular,14.4,mm,14.4,14.4,mm,,,CT SCAN,INDEPENDENT ASSESSOR,RADIOLOGIST 2,,3,BASELINE,2014-01-02,1
62,CDISCPILOT01,TR,01-701-1015,62,TARGET,R1-A1,,SUMDIAM,Sum of Diameter,77,mm,77,77,mm,,,CT SCAN,INDEPENDENT ASSESSOR,RADIOLOGIST 1,Y,3,BASELINE,2014-01-02,1
63,CDISCPILOT01,TR,01-701-1015,63,TARGET,R2-A1,,SUMDIAM,Sum of Diameter,74,mm,74,74,mm,,,CT SCAN,INDEPENDENT ASSESSOR,RADIOLOGIST 2,,3,BASELINE,2014-01-02,1
64,CDISCPILOT01,TR,01-701-1015,64,NON-TARGET,A2,NT01,TUMSTATE,Tumor State,UNEQUIVOCAL,,UNEQUIVOCAL,,,,,CT SCAN,INVESTIGATOR,,,7,WEEK 6,2014-02-12,42
65,CDISCPILOT01,TR,01-701-1015,65,NON-TARGET,A2,NT02,TUMSTATE,Tumor State,ABSENT,,ABSENT,,,,,CT SCAN,INVESTIGATOR,,,7,WEEK 6,2014-02-12,42
66,CDISCPILOT01,TR,01-701-1015,66,NON-TARGET,A2,NT03,TUMSTATE,Tumor State,ABSENT,,ABSENT,,,,,CT SCAN,INVESTIGATOR,,,7,WEEK 6,2014-02-12,42
67,CDISCPILOT01,TR,01-701-1015,67,NON-TARGET,A2,NT04,TUMSTATE,Tumor State,PRESENT,,PRESENT,,,,,CT SCAN,INVESTIGATOR,,,7,WEEK 6,2014-02-12,42
68,CDISCPILOT01,TR,01-701-1015,68,NON-TARGET,A2,NT05,TUMSTATE,Tumor State,PRESENT,,PRESENT,,,,,CT SCAN,INVESTIGATOR,,,7,WEEK 6,2014-02-12,42
69,CDISCPILOT01,TR,01-701-1015,69,NON-TARGET,R1-A2,R1-NT01,TUMSTATE,Tumor State,PRESENT,,PRESENT,,,,,CT SCAN,INDEPENDENT ASSESSOR,RADIOLOGIST 1,Y,7,WEEK 6,2014-02-12,42
70,CDISCPILOT01,TR,01-701-1015,70,NON-TARGET,R1-A2,R1-NT02,TUMSTATE,Tumor State,PRESENT,,PRESENT,,,,,CT SCAN,INDEPENDENT ASSESSOR,RADIOLOGIST 1,Y,7,WEEK 6,2014-02-12,42
71,CDISCPILOT01,TR,01-701-1015,71,NON-TARGET,R1-A2,R1-NT03,TUMSTATE,Tumor State,ABSENT,,ABSENT,,,,,CT SCAN,INDEPENDENT ASSESSOR,RADIOLOGIST 1,Y,7,WEEK 6,2014-02-12,42
72,CDISCPILOT01,TR,01-701-1015,72,NON-TARGET,R1-A2,R1-NT04,TUMSTATE,Tumor State,ABSENT,,ABSENT,,,,,CT SCAN,INDEPENDENT ASSESSOR,RADIOLOGIST 1,Y,7,WEEK 6,2014-02-12,42
73,CDISCPILOT01,TR,01-701-1015,73,NON-TARGET,R1-A2,R1-NT05,TUMSTATE,Tumor State,UNEQUIVOCAL,,UNEQUIVOCAL,,,,,CT SCAN,INDEPENDENT ASSESSOR,RADIOLOGIST 1,Y,7,WEEK 6,2014-02-12,42
74,CDISCPILOT01,TR,01-701-1015,74,NON-TARGET,R2-A2,R2-NT01,TUMSTATE,Tumor State,PRESENT,,PRESENT,,,,,CT SCAN,INDEPENDENT ASSESSOR,RADIOLOGIST 2,,7,WEEK 6,2014-02-12,42
75,CDISCPILOT01,TR,01-701-1015,75,NON-TARGET,R2-A2,R2-NT02,TUMSTATE,Tumor State,ABSENT,,ABSENT,,,,,CT SCAN,INDEPENDENT ASSESSOR,RADIOLOGIST 2,,7,WEEK 6,2014-02-12,42
76,CDISCPILOT01,TR,01-701-1015,76,NON-TARGET,R2-A2,R2-NT03,TUMSTATE,Tumor State,PRESENT,,PRESENT,,,,,CT SCAN,INDEPENDENT ASSESSOR,RADIOLOGIST 2,,7,WEEK 6,2014-02-12,42
77,CDISCPILOT01,TR,01-701-1015,77,NON-TARGET,R2-A2,R2-NT04,TUMSTATE,Tumor State,PRESENT,,PRESENT,,,,,CT SCAN,INDEPENDENT ASSESSOR,RADIOLOGIST 2,,7,WEEK 6,2014-02-12,42
78,CDISCPILOT01,TR,01-701-1015,78,NON-TARGET,R2-A2,R2-NT05,TUMSTATE,Tumor State,ABSENT,,ABSENT,,,,,CT SCAN,INDEPENDENT ASSESSOR,RADIOLOGIST 2,,7,WEEK 6,2014-02-12,42
79,CDISCPILOT01,TR,01-701-1015,79,TARGET,R1-A2,R1-T01,DIAMETER,Diameter,5,mm,5,5,mm,,,CT SCAN,INDEPENDENT ASSESSOR,RADIOLOGIST 1,Y,7,WEEK 6,2014-02-12,42
80,CDISCPILOT01,TR,01-701-1015,80,TARGET,R1-A2,R1-T01,LDIAM,Longest Diameter,5.5,mm,5.5,5.5,mm,,,CT SCAN,INDEPENDENT ASSESSOR,RADIOLOGIST 1,Y,7,WEEK 6,2014-02-12,42
81,CDISCPILOT01,TR,01-701-1015,81,TARGET,R1-A2,R1-T01,LPERP,Longest Perpendicular,5,mm,5,5,mm,,,CT SCAN,INDEPENDENT ASSESSOR,RADIOLOGIST 1,Y,7,WEEK 6,2014-02-12,42
82,CDISCPILOT01,TR,01-701-1015,82,TARGET,R1-A2,R1-T02,DIAMETER,Diameter,10,mm,10,10,mm,,,CT SCAN,INDEPENDENT ASSESSOR,RADIOLOGIST 1,Y,7,WEEK 6,2014-02-12,42
83,CDISCPILOT01,TR,01-701-1015,83,TARGET,R1-A2,R1-T02,LDIAM,Longest Diameter,10,mm,10,10,mm,,,CT SCAN,INDEPENDENT ASSESSOR,RADIOLOGIST 1,Y,7,WEEK 6,2014-02-12,42
84,CDISCPILOT01,TR,01-701-1015,84,TARGET,R1-A2,R1-T02,LPERP,Longest Perpendicular,9,mm,9,9,mm,,,CT SCAN,INDEPENDENT ASSESSOR,RADIOLOGIST 1,Y,7,WEEK 6,2014-02-12,42
85,CDISCPILOT01,TR,01-701-1015,85,TARGET,R1-A2,R1-T03,DIAMETER,Diameter,5,mm,5,5,mm,,,CT SCAN,INDEPENDENT ASSESSOR,RADIOLOGIST 1,Y,7,WEEK 6,2014-02-12,42
86,CDISCPILOT01,TR,01-701-1015,86,TARGET,R1-A2,R1-T03,LDIAM,Longest Diameter,5,mm,5,5,mm,,,CT SCAN,INDEPENDENT ASSESSOR,RADIOLOGIST 1,Y,7,WEEK 6,2014-02-12,42
87,CDISCPILOT01,TR,01-701-1015,87,TARGET,R1-A2,R1-T03,LPERP,Longest Perpendicular,4.5,mm,4.5,4.5,mm,,,CT SCAN,INDEPENDENT ASSESSOR,RADIOLOGIST 1,Y,7,WEEK 6,2014-02-12,42
88,CDISCPILOT01,TR,01-701-1015,88,TARGET,R1-A2,R1-T04,DIAMETER,Diameter,8,mm,8,8,mm,,,CT SCAN,INDEPENDENT ASSESSOR,RADIOLOGIST 1,Y,7,WEEK 6,2014-02-12,42
89,CDISCPILOT01,TR,01-701-1015,89,TARGET,R1-A2,R1-T04,LDIAM,Longest Diameter,8,mm,8,8,mm,,,CT SCAN,INDEPENDENT ASSESSOR,RADIOLOGIST 1,Y,7,WEEK 6,2014-02-12,42
90,CDISCPILOT01,TR,01-701-1015,90,TARGET,R1-A2,R1-T04,LPERP,Longest Perpendicular,7.2,mm,7.2,7.2,mm,,,CT SCAN,INDEPENDENT ASSESSOR,RADIOLOGIST 1,Y,7,WEEK 6,2014-02-12,42
91,CDISCPILOT01,TR,01-701-1015,91,TARGET,R1-A2,R1-T05,DIAMETER,Diameter,10,mm,10,10,mm,,,CT SCAN,INDEPENDENT ASSESSOR,RADIOLOGIST 1,Y,7,WEEK 6,2014-02-12,42
92,CDISCPILOT01,TR,01-701-1015,92,TARGET,R1-A2,R1-T05,LDIAM,Longest Diameter,10,mm,10,10,mm,,,CT SCAN,INDEPENDENT ASSESSOR,RADIOLOGIST 1,Y,7,WEEK 6,2014-02-12,42
93,CDISCPILOT01,TR,01-701-1015,93,TARGET,R1-A2,R1-T05,LPERP,Longest Perpendicular,9,mm,9,9,mm,,,CT SCAN,INDEPENDENT ASSESSOR,RADIOLOGIST 1,Y,7,WEEK 6,2014-02-12,42
94,CDISCPILOT01,TR,01-701-1015,94,TARGET,R2-A2,R2-T01,DIAMETER,Diameter,10,mm,10,10,mm,,,CT SCAN,INDEPENDENT ASSESSOR,RADIOLOGIST 2,,7,WEEK 6,2014-02-12,42
95,CDISCPILOT01,TR,01-701-1015,95,TARGET,R2-A2,R2-T01,LDIAM,Longest Diameter,10,mm,10,10,mm,,,CT SCAN,INDEPENDENT ASSESSOR,RADIOLOGIST 2,,7,WEEK 6,2014-02-12,42
96,CDISCPILOT01,TR,01-701-1015,96,TARGET,R2-A2,R2-T01,LPERP,Longest Perpendicular,9,mm,9,9,mm,,,CT SCAN,INDEPENDENT ASSESSOR,RADIOLOGIST 2,,7,WEEK 6,2014-02-12,42
97,CDISCPILOT01,TR,01-701-1015,97,TARGET,R2-A2,R2-T02,DIAMETER,Diameter,12,mm,12,12,mm,,,CT SCAN,INDEPENDENT ASSESSOR,RADIOLOGIST 2,,7,WEEK 6,2014-02-12,42
98,CDISCPILOT01,TR,01-701-1015,98,TARGET,R2-A2,R2-T02,LDIAM,Longest Diameter,12,mm,12,12,mm,,,CT SCAN,INDEPENDENT ASSESSOR,RADIOLOGIST 2,,7,WEEK 6,2014-02-12,42
99,CDISCPILOT01,TR,01-701-1015,99,TARGET,R2-A2,R2-T02,LPERP,Longest Perpendicular,10.8,mm,10.8,10.8,mm,,,CT SCAN,INDEPENDENT ASSESSOR,RADIOLOGIST 2,,7,WEEK 6,2014-02-12,42
100,CDISCPILOT01,TR,01-701-1015,100,TARGET,R2-A2,R2-T03,DIAMETER,Diameter,11,mm,11,11,mm,,,CT SCAN,INDEPENDENT ASSESSOR,RADIOLOGIST 2,,7,WEEK 6,2014-02-12,42
101,CDISCPILOT01,TR,01-701-1015,101,TARGET,R2-A2,R2-T03,LDIAM,Longest Diameter,11,mm,11,11,mm,,,CT SCAN,INDEPENDENT ASSESSOR,RADIOLOGIST 2,,7,WEEK 6,2014-02-12,42
102,CDISCPILOT01,TR,01-701-1015,102,TARGET,R2-A2,R2-T03,LPERP,Longest Perpendicular,9.9,mm,9.9,9.9,mm,,,CT SCAN,INDEPENDENT ASSESSOR,RADIOLOGIST 2,,7,WEEK 6,2014-02-12,42
103,CDISCPILOT01,TR,01-701-1015,103,TARGET,R2-A2,R2-T04,DIAMETER,Diameter,11,mm,11,11,mm,,,CT SCAN,INDEPENDENT ASSESSOR,RADIOLOGIST 2,,7,WEEK 6,2014-02-12,42
104,CDISCPILOT01,TR,01-701-1015,104,TARGET,R2-A2,R2-T04,LDIAM,Longest Diameter,11,mm,11,11,mm,,,CT SCAN,INDEPENDENT ASSESSOR,RADIOLOGIST 2,,7,WEEK 6,2014-02-12,42
105,CDISCPILOT01,TR,01-701-1015,105,TARGET,R2-A2,R2-T04,LPERP,Longest Perpendicular,9.9,mm,9.9,9.9,mm,,,CT SCAN,INDEPENDENT ASSESSOR,RADIOLOGIST 2,,7,WEEK 6,2014-02-12,42
106,CDISCPILOT01,TR,01-701-1015,106,TARGET,R2-A2,R2-T05,DIAMETER,Diameter,13,mm,13,13,mm,,,CT SCAN,INDEPENDENT ASSESSOR,RADIOLOGIST 2,,7,WEEK 6,2014-02-12,42
107,CDISCPILOT01,TR,01-701-1015,107,TARGET,R2-A2,R2-T05,LDIAM,Longest Diameter,13,mm,13,13,mm,,,CT SCAN,INDEPENDENT ASSESSOR,RADIOLOGIST 2,,7,WEEK 6,2014-02-12,42
108,CDISCPILOT01,TR,01-701-1015,108,TARGET,R2-A2,R2-T05,LPERP,Longest Perpendicular,11.7,mm,11.7,11.700000000000001,mm,,,CT SCAN,INDEPENDENT ASSESSOR,RADIOLOGIST 2,,7,WEEK 6,2014-02-12,42
109,CDISCPILOT01,TR,01-701-1015,109,TARGET,A2,T01,DIAMETER,Diameter,11,mm,11,11,mm,,,CT SCAN,INVESTIGATOR,,,7,WEEK 6,2014-02-12,42
110,CDISCPILOT01,TR,01-701-1015,110,TARGET,A2,T01,LDIAM,Longest Diameter,11,mm,11,11,mm,,,CT SCAN,INVESTIGATOR,,,7,WEEK 6,2014-02-12,42
111,CDISCPILOT01,TR,01-701-1015,111,TARGET,A2,T01,LPERP,Longest Perpendicular,9.9,mm,9.9,9.9,mm,,,CT SCAN,INVESTIGATOR,,,7,WEEK 6,2014-02-12,42
112,CDISCPILOT01,TR,01-701-1015,112,TARGET,A2,T02,DIAMETER,Diameter,6,mm,6,6,mm,,,CT SCAN,INVESTIGATOR,,,7,WEEK 6,2014-02-12,42
113,CDISCPILOT01,TR,01-701-1015,113,TARGET,A2,T02,LDIAM,Longest Diameter,6.6,mm,6.6,6.6000000000000005,mm,,,CT SCAN,INVESTIGATOR,,,7,WEEK 6,2014-02-12,42
114,CDISCPILOT01,TR,01-701-1015,114,TARGET,A2,T02,LPERP,Longest Perpendicular,6,mm,6,6,mm,,,CT SCAN,INVESTIGATOR,,,7,WEEK 6,2014-02-12,42
115,CDISCPILOT01,TR,01-701-1015,115,TARGET,A2,T03,DIAMETER,Diameter,12,mm,12,12,mm,,,CT SCAN,INVESTIGATOR,,,7,WEEK 6,2014-02-12,42
116,CDISCPILOT01,TR,01-701-1015,116,TARGET,A2,T03,LDIAM,Longest Diameter,12,mm,12,12,mm,,,CT SCAN,INVESTIGATOR,,,7,WEEK 6,2014-02-12,42
117,CDISCPILOT01,TR,01-701-1015,117,TARGET,A2,T03,LPERP,Longest Perpendicular,10.8,mm,10.8,10.8,mm,,,CT SCAN,INVESTIGATOR,,,7,WEEK 6,2014-02-12,42
118,CDISCPILOT01,TR,01-701-1015,118,TARGET,A2,T04,DIAMETER,Diameter,8,mm,8,8,mm,,,CT SCAN,INVESTIGATOR,,,7,WEEK 6,2014-02-12,42
119,CDISCPILOT01,TR,01-701-1015,119,TARGET,A2,T04,LDIAM,Longest Diameter,8,mm,8,8,mm,,,CT SCAN,INVESTIGATOR,,,7,WEEK 6,2014-02-12,42
120,CDISCPILOT01,TR,01-701-1015,120,TARGET,A2,T04,LPERP,Longest Perpendicular,7.2,mm,7.2,7.2,mm,,,CT SCAN,INVESTIGATOR,,,7,WEEK 6,2014-02-12,42
121,CDISCPILOT01,TR,01-701-1015,121,TARGET,A2,T05,DIAMETER,Diameter,5,mm,5,5,mm,,,CT SCAN,INVESTIGATOR,,,7,WEEK 6,2014-02-12,42
122,CDISCPILOT01,TR,01-701-1015,122,TARGET,A2,T05,LDIAM,Longest Diameter,5,mm,5,5,mm,,,CT SCAN,INVESTIGATOR,,,7,WEEK 6,2014-02-12,42
123,CDISCPILOT01,TR,01-701-1015,123,TARGET,A2,T05,LPERP,Longest Perpendicular,4.5,mm,4.5,4.5,mm,,,CT SCAN,INVESTIGATOR,,,7,WEEK 6,2014-02-12,42
124,CDISCPILOT01,TR,01-701-1015,124,TARGET,R1-A2,,SUMDIAM,Sum of Diameter,38,mm,38,38,mm,,,CT SCAN,INDEPENDENT ASSESSOR,RADIOLOGIST 1,Y,7,WEEK 6,2014-02-12,42
125,CDISCPILOT01,TR,01-701-1015,125,TARGET,R2-A2,,SUMDIAM,Sum of Diameter,57,mm,57,57,mm,,,CT SCAN,INDEPENDENT ASSESSOR,RADIOLOGIST 2,,7,WEEK 6,2014-02-12,42
126,CDISCPILOT01,TR,01-701-1015,126,TARGET,A2,,SUMDIAM,Sum of Diameter,42,mm,42,42,mm,,,CT SCAN,INVESTIGATOR,,,7,WEEK 6,2014-02-12,42
127,CDISCPILOT01,TR,01-701-1015,127,NON-TARGET,A3,NT01,TUMSTATE,Tumor State,ABSENT,,ABSENT,,,,,CT SCAN,INVESTIGATOR,,,9,WEEK 12,2014-03-26,84
128,CDISCPILOT01,TR,01-701-1015,128,NON-TARGET,A3,NT02,TUMSTATE,Tumor State,ABSENT,,ABSENT,,,,,CT SCAN,INVESTIGATOR,,,9,WEEK 12,2014-03-26,84
129,CDISCPILOT01,TR,01-701-1015,129,NON-TARGET,A3,NT03,TUMSTATE,Tumor State,ABSENT,,ABSENT,,,,,CT SCAN,INVESTIGATOR,,,9,WEEK 12,2014-03-26,84
130,CDISCPILOT01,TR,01-701-1015,130,NON-TARGET,A3,NT04,TUMSTATE,Tumor State,ABSENT,,ABSENT,,,,,CT SCAN,INVESTIGATOR,,,9,WEEK 12,2014-03-26,84
131,CDISCPILOT01,TR,01-701-1015,131,NON-TARGET,A3,NT05,TUMSTATE,Tumor State,ABSENT,,ABSENT,,,,,CT SCAN,INVESTIGATOR,,,9,WEEK 12,2014-03-26,84
132,CDISCPILOT01,TR,01-701-1015,132,NON-TARGET,R1-A3,R1-NT01,TUMSTATE,Tumor State,ABSENT,,ABSENT,,,,,CT SCAN,INDEPENDENT ASSESSOR,RADIOLOGIST 1,Y,9,WEEK 12,2014-03-26,84
133,CDISCPILOT01,TR,01-701-1015,133,NON-TARGET,R1-A3,R1-NT02,TUMSTATE,Tumor State,ABSENT,,ABSENT,,,,,CT SCAN,INDEPENDENT ASSESSOR,RADIOLOGIST 1,Y,9,WEEK 12,2014-03-26,84
134,CDISCPILOT01,TR,01-701-1015,134,NON-TARGET,R1-A3,R1-NT03,TUMSTATE,Tumor State,ABSENT,,ABSENT,,,,,CT SCAN,INDEPENDENT ASSESSOR,RADIOLOGIST 1,Y,9,WEEK 12,2014-03-26,84
135,CDISCPILOT01,TR,01-701-1015,135,NON-TARGET,R1-A3,R1-NT04,TUMSTATE,Tumor State,ABSENT,,ABSENT,,,,,CT SCAN,INDEPENDENT ASSESSOR,RADIOLOGIST 1,Y,9,WEEK 12,2014-03-26,84
136,CDISCPILOT01,TR,01-701-1015,136,NON-TARGET,R1-A3,R1-NT05,TUMSTATE,Tumor State,ABSENT,,ABSENT,,,,,CT SCAN,INDEPENDENT ASSESSOR,RADIOLOGIST 1,Y,9,WEEK 12,2014-03-26,84
137,CDISCPILOT01,TR,01-701-1015,137,NON-TARGET,R2-A3,R2-NT01,TUMSTATE,Tumor State,ABSENT,,ABSENT,,,,,CT SCAN,INDEPENDENT ASSESSOR,RADIOLOGIST 2,,9,WEEK 12,2014-03-26,84
138,CDISCPILOT01,TR,01-701-1015,138,NON-TARGET,R2-A3,R2-NT02,TUMSTATE,Tumor State,ABSENT,,ABSENT,,,,,CT SCAN,INDEPENDENT ASSESSOR,RADIOLOGIST 2,,9,WEEK 12,2014-03-26,84
139,CDISCPILOT01,TR,01-701-1015,139,NON-TARGET,R2-A3,R2-NT03,TUMSTATE,Tumor State,ABSENT,,ABSENT,,,,,CT SCAN,INDEPENDENT ASSESSOR,RADIOLOGIST 2,,9,WEEK 12,2014-03-26,84
140,CDISCPILOT01,TR,01-701-1015,140,NON-TARGET,R2-A3,R2-NT04,TUMSTATE,Tumor State,ABSENT,,ABSENT,,,,,CT SCAN,INDEPENDENT ASSESSOR,RADIOLOGIST 2,,9,WEEK 12,2014-03-26,84
141,CDISCPILOT01,TR,01-701-1015,141,NON-TARGET,R2-A3,R2-NT05,TUMSTATE,Tumor State,ABSENT,,ABSENT,,,,,CT SCAN,INDEPENDENT ASSESSOR,RADIOLOGIST 2,,9,WEEK 12,2014-03-26,84
142,CDISCPILOT01,TR,01-701-1015,142,TARGET,R1-A3,R1-T01,DIAMETER,Diameter,0,mm,0,0,mm,,,CT SCAN,INDEPENDENT ASSESSOR,RADIOLOGIST 1,Y,9,WEEK 12,2014-03-26,84
143,CDISCPILOT01,TR,01-701-1015,143,TARGET,R1-A3,R1-T01,LDIAM,Longest Diameter,0,mm,0,0,mm,,,CT SCAN,INDEPENDENT ASSESSOR,RADIOLOGIST 1,Y,9,WEEK 12,2014-03-26,84
144,CDISCPILOT01,TR,01-701-1015,144,TARGET,R1-A3,R1-T01,LPERP,Longest Perpendicular,0,mm,0,0,mm,,,CT SCAN,INDEPENDENT ASSESSOR,RADIOLOGIST 1,Y,9,WEEK 12,2014-03-26,84
145,CDISCPILOT01,TR,01-701-1015,145,TARGET,R1-A3,R1-T02,DIAMETER,Diameter,0,mm,0,0,mm,,,CT SCAN,INDEPENDENT ASSESSOR,RADIOLOGIST 1,Y,9,WEEK 12,2014-03-26,84
146,CDISCPILOT01,TR,01-701-1015,146,TARGET,R1-A3,R1-T02,LDIAM,Longest Diameter,0,mm,0,0,mm,,,CT SCAN,INDEPENDENT ASSESSOR,RADIOLOGIST 1,Y,9,WEEK 12,2014-03-26,84
147,CDISCPILOT01,TR,01-701-1015,147,TARGET,R1-A3,R1-T02,LPERP,Longest Perpendicular,0,mm,0,0,mm,,,CT SCAN,INDEPENDENT ASSESSOR,RADIOLOGIST 1,Y,9,WEEK 12,2014-03-26,84
148,CDISCPILOT01,TR,01-701-1015,148,TARGET,R1-A3,R1-T03,DIAMETER,Diameter,0,mm,0,0,mm,,,CT SCAN,INDEPENDENT ASSESSOR,RADIOLOGIST 1,Y,9,WEEK 12,2014-03-26,84
149,CDISCPILOT01,TR,01-701-1015,149,TARGET,R1-A3,R1-T03,LDIAM,Longest Diameter,0,mm,0,0,mm,,,CT SCAN,INDEPENDENT ASSESSOR,RADIOLOGIST 1,Y,9,WEEK 12,2014-03-26,84
150,CDISCPILOT01,TR,01-701-1015,150,TARGET,R1-A3,R1-T03,LPERP,Longest Perpendicular,0,mm,0,0,mm,,,CT SCAN,INDEPENDENT ASSESSOR,RADIOLOGIST 1,Y,9,WEEK 12,2014-03-26,84
151,CDISCPILOT01,TR,01-701-1015,151,TARGET,R1-A3,R1-T04,DIAMETER,Diameter,0,mm,0,0,mm,,,CT SCAN,INDEPENDENT ASSESSOR,RADIOLOGIST 1,Y,9,WEEK 12,2014-03-26,84
152,CDISCPILOT01,TR,01-701-1015,152,TARGET,R1-A3,R1-T04,LDIAM,Longest Diameter,0,mm,0,0,mm,,,CT SCAN,INDEPENDENT ASSESSOR,RADIOLOGIST 1,Y,9,WEEK 12,2014-03-26,84
153,CDISCPILOT01,TR,01-701-1015,153,TARGET,R1-A3,R1-T04,LPERP,Longest Perpendicular,0,mm,0,0,mm,,,CT SCAN,INDEPENDENT ASSESSOR,RADIOLOGIST 1,Y,9,WEEK 12,2014-03-26,84
154,CDISCPILOT01,TR,01-701-1015,154,TARGET,R1-A3,R1-T05,DIAMETER,Diameter,0,mm,0,0,mm,,,CT SCAN,INDEPENDENT ASSESSOR,RADIOLOGIST 1,Y,9,WEEK 12,2014-03-26,84
155,CDISCPILOT01,TR,01-701-1015,155,TARGET,R1-A3,R1-T05,LDIAM,Longest Diameter,0,mm,0,0,mm,,,CT SCAN,INDEPENDENT ASSESSOR,RADIOLOGIST 1,Y,9,WEEK 12,2014-03-26,84
156,CDISCPILOT01,TR,01-701-1015,156,TARGET,R1-A3,R1-T05,LPERP,Longest Perpendicular,0,mm,0,0,mm,,,CT SCAN,INDEPENDENT ASSESSOR,RADIOLOGIST 1,Y,9,WEEK 12,2014-03-26,84
157,CDISCPILOT01,TR,01-701-1015,157,TARGET,R2-A3,R2-T01,DIAMETER,Diameter,0,mm,0,0,mm,,,CT SCAN,INDEPENDENT ASSESSOR,RADIOLOGIST 2,,9,WEEK 12,2014-03-26,84
158,CDISCPILOT01,TR,01-701-1015,158,TARGET,R2-A3,R2-T01,LDIAM,Longest Diameter,0,mm,0,0,mm,,,CT SCAN,INDEPENDENT ASSESSOR,RADIOLOGIST 2,,9,WEEK 12,2014-03-26,84
159,CDISCPILOT01,TR,01-701-1015,159,TARGET,R2-A3,R2-T01,LPERP,Longest Perpendicular,0,mm,0,0,mm,,,CT SCAN,INDEPENDENT ASSESSOR,RADIOLOGIST 2,,9,WEEK 12,2014-03-26,84
160,CDISCPILOT01,TR,01-701-1015,160,TARGET,R2-A3,R2-T02,DIAMETER,Diameter,0,mm,0,0,mm,,,CT SCAN,INDEPENDENT ASSESSOR,RADIOLOGIST 2,,9,WEEK 12,2014-03-26,84
161,CDISCPILOT01,TR,01-701-1015,161,TARGET,R2-A3,R2-T02,LDIAM,Longest Diameter,0,mm,0,0,mm,,,CT SCAN,INDEPENDENT ASSESSOR,RADIOLOGIST 2,,9,WEEK 12,2014-03-26,84
162,CDISCPILOT01,TR,01-701-1015,162,TARGET,R2-A3,R2-T02,LPERP,Longest Perpendicular,0,mm,0,0,mm,,,CT SCAN,INDEPENDENT ASSESSOR,RADIOLOGIST 2,,9,WEEK 12,2014-03-26,84
163,CDISCPILOT01,TR,01-701-1015,163,TARGET,R2-A3,R2-T03,DIAMETER,Diameter,0,mm,0,0,mm,,,CT SCAN,INDEPENDENT ASSESSOR,RADIOLOGIST 2,,9,WEEK 12,2014-03-26,84
164,CDISCPILOT01,TR,01-701-1015,164,TARGET,R2-A3,R2-T03,LDIAM,Longest Diameter,0,mm,0,0,mm,,,CT SCAN,INDEPENDENT ASSESSOR,RADIOLOGIST 2,,9,WEEK 12,2014-03-26,84
165,CDISCPILOT01,TR,01-701-1015,165,TARGET,R2-A3,R2-T03,LPERP,Longest Perpendicular,0,mm,0,0,mm,,,CT SCAN,INDEPENDENT ASSESSOR,RADIOLOGIST 2,,9,WEEK 12,2014-03-26,84
166,CDISCPILOT01,TR,01-701-1015,166,TARGET,R2-A3,R2-T04,DIAMETER,Diameter,0,mm,0,0,mm,,,CT SCAN,INDEPENDENT ASSESSOR,RADIOLOGIST 2,,9,WEEK 12,2014-03-26,84
167,CDISCPILOT01,TR,01-701-1015,167,TARGET,R2-A3,R2-T04,LDIAM,Longest Diameter,0,mm,0,0,mm,,,CT SCAN,INDEPENDENT ASSESSOR,RADIOLOGIST 2,,9,WEEK 12,2014-03-26,84
168,CDISCPILOT01,TR,01-701-1015,168,TARGET,R2-A3,R2-T04,LPERP,Longest Perpendicular,0,mm,0,0,mm,,,CT SCAN,INDEPENDENT ASSESSOR,RADIOLOGIST 2,,9,WEEK 12,2014-03-26,84
169,CDISCPILOT01,TR,01-701-1015,169,TARGET,R2-A3,R2-T05,DIAMETER,Diameter,0,mm,0,0,mm,,,CT SCAN,INDEPENDENT ASSESSOR,RADIOLOGIST 2,,9,WEEK 12,2014-03-26,84
170,CDISCPILOT01,TR,01-701-1015,170,TARGET,R2-A3,R2-T05,LDIAM,Longest Diameter,0,mm,0,0,mm,,,CT SCAN,INDEPENDENT ASSESSOR,RADIOLOGIST 2,,9,WEEK 12,2014-03-26,84
171,CDISCPILOT01,TR,01-701-1015,171,TARGET,R2-A3,R2-T05,LPERP,Longest Perpendicular,0,mm,0,0,mm,,,CT SCAN,INDEPENDENT ASSESSOR,RADIOLOGIST 2,,9,WEEK 12,2014-03-26,84
172,CDISCPILOT01,TR,01-701-1015,172,TARGET,A3,T01,DIAMETER,Diameter,0,mm,0,0,mm,,,CT SCAN,INVESTIGATOR,,,9,WEEK 12,2014-03-26,84
173,CDISCPILOT01,TR,01-701-1015,173,TARGET,A3,T01,LDIAM,Longest Diameter,0,mm,0,0,mm,,,CT SCAN,INVESTIGATOR,,,9,WEEK 12,2014-03-26,84
174,CDISCPILOT01,TR,01-701-1015,174,TARGET,A3,T01,LPERP,Longest Perpendicular,0,mm,0,0,mm,,,CT SCAN,INVESTIGATOR,,,9,WEEK 12,2014-03-26,84
175,CDISCPILOT01,TR,01-701-1015,175,TARGET,A3,T02,DIAMETER,Diameter,0,mm,0,0,mm,,,CT SCAN,INVESTIGATOR,,,9,WEEK 12,2014-03-26,84
176,CDISCPILOT01,TR,01-701-1015,176,TARGET,A3,T02,LDIAM,Longest Diameter,0,mm,0,0,mm,,,CT SCAN,INVESTIGATOR,,,9,WEEK 12,2014-03-26,84
177,CDISCPILOT01,TR,01-701-1015,177,TARGET,A3,T02,LPERP,Longest Perpendicular,0,mm,0,0,mm,,,CT SCAN,INVESTIGATOR,,,9,WEEK 12,2014-03-26,84
178,CDISCPILOT01,TR,01-701-1015,178,TARGET,A3,T03,DIAMETER,Diameter,0,mm,0,0,mm,,,CT SCAN,INVESTIGATOR,,,9,WEEK 12,2014-03-26,84
179,CDISCPILOT01,TR,01-701-1015,179,TARGET,A3,T03,LDIAM,Longest Diameter,0,mm,0,0,mm,,,CT SCAN,INVESTIGATOR,,,9,WEEK 12,2014-03-26,84
180,CDISCPILOT01,TR,01-701-1015,180,TARGET,A3,T03,LPERP,Longest Perpendicular,0,mm,0,0,mm,,,CT SCAN,INVESTIGATOR,,,9,WEEK 12,2014-03-26,84
181,CDISCPILOT01,TR,01-701-1015,181,TARGET,A3,T04,DIAMETER,Diameter,0,mm,0,0,mm,,,CT SCAN,INVESTIGATOR,,,9,WEEK 12,2014-03-26,84
182,CDISCPILOT01,TR,01-701-1015,182,TARGET,A3,T04,LDIAM,Longest Diameter,0,mm,0,0,mm,,,CT SCAN,INVESTIGATOR,,,9,WEEK 12,2014-03-26,84
183,CDISCPILOT01,TR,01-701-1015,183,TARGET,A3,T04,LPERP,Longest Perpendicular,0,mm,0,0,mm,,,CT SCAN,INVESTIGATOR,,,9,WEEK 12,2014-03-26,84
184,CDISCPILOT01,TR,01-701-1015,184,TARGET,A3,T05,DIAMETER,Diameter,0,mm,0,0,mm,,,CT SCAN,INVESTIGATOR,,,9,WEEK 12,2014-03-26,84
185,CDISCPILOT01,TR,01-701-1015,185,TARGET,A3,T05,LDIAM,Longest Diameter,0,mm,0,0,mm,,,CT SCAN,INVESTIGATOR,,,9,WEEK 12,2014-03-26,84
186,CDISCPILOT01,TR,01-701-1015,186,TARGET,A3,T05,LPERP,Longest Perpendicular,0,mm,0,0,mm,,,CT SCAN,INVESTIGATOR,,,9,WEEK 12,2014-03-26,84
187,CDISCPILOT01,TR,01-701-1015,187,TARGET,R1-A3,,SUMDIAM,Sum of Diameter,0,mm,0,0,mm,,,CT SCAN,INDEPENDENT ASSESSOR,RADIOLOGIST 1,Y,9,WEEK 12,2014-03-26,84
188,CDISCPILOT01,TR,01-701-1015,188,TARGET,R2-A3,,SUMDIAM,Sum of Diameter,0,mm,0,0,mm,,,CT SCAN,INDEPENDENT ASSESSOR,RADIOLOGIST 2,,9,WEEK 12,2014-03-26,84
189,CDISCPILOT01,TR,01-701-1015,189,TARGET,A3,,SUMDIAM,Sum of Diameter,0,mm,0,0,mm,,,CT SCAN,INVESTIGATOR,,,9,WEEK 12,2014-03-26,84
190,CDISCPILOT01,TR,01-701-1015,190,NON-TARGET,A4,NT01,TUMSTATE,Tumor State,ABSENT,,ABSENT,,,,,CT SCAN,INVESTIGATOR,,,12,WEEK 24,2014-06-18,168
191,CDISCPILOT01,TR,01-701-1015,191,NON-TARGET,A4,NT02,TUMSTATE,Tumor State,PRESENT,,PRESENT,,,,,CT SCAN,INVESTIGATOR,,,12,WEEK 24,2014-06-18,168
192,CDISCPILOT01,TR,01-701-1015,192,NON-TARGET,A4,NT03,TUMSTATE,Tumor State,,,,,,NOT DONE,NOT ASSESSABLE: Image obscured,CT SCAN,INVESTIGATOR,,,12,WEEK 24,2014-06-18,168
193,CDISCPILOT01,TR,01-701-1015,193,NON-TARGET,A4,NT04,TUMSTATE,Tumor State,PRESENT,,PRESENT,,,,,CT SCAN,INVESTIGATOR,,,12,WEEK 24,2014-06-18,168
194,CDISCPILOT01,TR,01-701-1015,194,NON-TARGET,A4,NT05,TUMSTATE,Tumor State,PRESENT,,PRESENT,,,,,CT SCAN,INVESTIGATOR,,,12,WEEK 24,2014-06-18,168
195,CDISCPILOT01,TR,01-701-1015,195,NON-TARGET,R1-A4,R1-NT01,TUMSTATE,Tumor State,ABSENT,,ABSENT,,,,,CT SCAN,INDEPENDENT ASSESSOR,RADIOLOGIST 1,Y,12,WEEK 24,2014-06-18,168
196,CDISCPILOT01,TR,01-701-1015,196,NON-TARGET,R1-A4,R1-NT02,TUMSTATE,Tumor State,ABSENT,,ABSENT,,,,,CT SCAN,INDEPENDENT ASSESSOR,RADIOLOGIST 1,Y,12,WEEK 24,2014-06-18,168
197,CDISCPILOT01,TR,01-701-1015,197,NON-TARGET,R1-A4,R1-NT03,TUMSTATE,Tumor State,ABSENT,,ABSENT,,,,,CT SCAN,INDEPENDENT ASSESSOR,RADIOLOGIST 1,Y,12,WEEK 24,2014-06-18,168
198,CDISCPILOT01,TR,01-701-1015,198,NON-TARGET,R1-A4,R1-NT04,TUMSTATE,Tumor State,ABSENT,,ABSENT,,,,,CT SCAN,INDEPENDENT ASSESSOR,RADIOLOGIST 1,Y,12,WEEK 24,2014-06-18,168
199,CDISCPILOT01,TR,01-701-1015,199,NON-TARGET,R1-A4,R1-NT05,TUMSTATE,Tumor State,PRESENT,,PRESENT,,,,,CT SCAN,INDEPENDENT ASSESSOR,RADIOLOGIST 1,Y,12,WEEK 24,2014-06-18,168
200,CDISCPILOT01,TR,01-701-1015,200,NON-TARGET,R2-A4,R2-NT01,TUMSTATE,Tumor State,ABSENT,,ABSENT,,,,,CT SCAN,INDEPENDENT ASSESSOR,RADIOLOGIST 2,,12,WEEK 24,2014-06-18,168
201,CDISCPILOT01,TR,01-701-1015,201,NON-TARGET,R2-A4,R2-NT02,TUMSTATE,Tumor State,ABSENT,,ABSENT,,,,,CT SCAN,INDEPENDENT ASSESSOR,RADIOLOGIST 2,,12,WEEK 24,2014-06-18,168
202,CDISCPILOT01,TR,01-701-1015,202,NON-TARGET,R2-A4,R2-NT03,TUMSTATE,Tumor State,ABSENT,,ABSENT,,,,,CT SCAN,INDEPENDENT ASSESSOR,RADIOLOGIST 2,,12,WEEK 24,2014-06-18,168
203,CDISCPILOT01,TR,01-701-1015,203,NON-TARGET,R2-A4,R2-NT04,TUMSTATE,Tumor State,UNEQUIVOCAL,,UNEQUIVOCAL,,,,,CT SCAN,INDEPENDENT ASSESSOR,RADIOLOGIST 2,,12,WEEK 24,2014-06-18,168
204,CDISCPILOT01,TR,01-701-1015,204,NON-TARGET,R2-A4,R2-NT05,TUMSTATE,Tumor State,ABSENT,,ABSENT,,,,,CT SCAN,INDEPENDENT ASSESSOR,RADIOLOGIST 2,,12,WEEK 24,2014-06-18,168
205,CDISCPILOT01,TR,01-701-1015,205,TARGET,R1-A4,R1-T01,DIAMETER,Diameter,7,mm,7,7,mm,,,CT SCAN,INDEPENDENT ASSESSOR,RADIOLOGIST 1,Y,12,WEEK 24,2014-06-18,168
206,CDISCPILOT01,TR,01-701-1015,206,TARGET,R1-A4,R1-T01,LDIAM,Longest Diameter,7.7,mm,7.7,7.700000000000001,mm,,,CT SCAN,INDEPENDENT ASSESSOR,RADIOLOGIST 1,Y,12,WEEK 24,2014-06-18,168
207,CDISCPILOT01,TR,01-701-1015,207,TARGET,R1-A4,R1-T01,LPERP,Longest Perpendicular,7,mm,7,7,mm,,,CT SCAN,INDEPENDENT ASSESSOR,RADIOLOGIST 1,Y,12,WEEK 24,2014-06-18,168
208,CDISCPILOT01,TR,01-701-1015,208,TARGET,R1-A4,R1-T02,DIAMETER,Diameter,12,mm,12,12,mm,,,CT SCAN,INDEPENDENT ASSESSOR,RADIOLOGIST 1,Y,12,WEEK 24,2014-06-18,168
209,CDISCPILOT01,TR,01-701-1015,209,TARGET,R1-A4,R1-T02,LDIAM,Longest Diameter,12,mm,12,12,mm,,,CT SCAN,INDEPENDENT ASSESSOR,RADIOLOGIST 1,Y,12,WEEK 24,2014-06-18,168
210,CDISCPILOT01,TR,01-701-1015,210,TARGET,R1-A4,R1-T02,LPERP,Longest Perpendicular,10.8,mm,10.8,10.8,mm,,,CT SCAN,INDEPENDENT ASSESSOR,RADIOLOGIST 1,Y,12,WEEK 24,2014-06-18,168
211,CDISCPILOT01,TR,01-701-1015,211,TARGET,R1-A4,R1-T03,DIAMETER,Diameter,8,mm,8,8,mm,,,CT SCAN,INDEPENDENT ASSESSOR,RADIOLOGIST 1,Y,12,WEEK 24,2014-06-18,168
212,CDISCPILOT01,TR,01-701-1015,212,TARGET,R1-A4,R1-T03,LDIAM,Longest Diameter,8,mm,8,8,mm,,,CT SCAN,INDEPENDENT ASSESSOR,RADIOLOGIST 1,Y,12,WEEK 24,2014-06-18,168
213,CDISCPILOT01,TR,01-701-1015,213,TARGET,R1-A4,R1-T03,LPERP,Longest Perpendicular,7.2,mm,7.2,7.2,mm,,,CT SCAN,INDEPENDENT ASSESSOR,RADIOLOGIST 1,Y,12,WEEK 24,2014-06-18,168
214,CDISCPILOT01,TR,01-701-1015,214,TARGET,R1-A4,R1-T04,DIAMETER,Diameter,13,mm,13,13,mm,,,CT SCAN,INDEPENDENT ASSESSOR,RADIOLOGIST 1,Y,12,WEEK 24,2014-06-18,168
215,CDISCPILOT01,TR,01-701-1015,215,TARGET,R1-A4,R1-T04,LDIAM,Longest Diameter,13,mm,13,13,mm,,,CT SCAN,INDEPENDENT ASSESSOR,RADIOLOGIST 1,Y,12,WEEK 24,2014-06-18,168
216,CDISCPILOT01,TR,01-701-1015,216,TARGET,R1-A4,R1-T04,LPERP,Longest Perpendicular,11.7,mm,11.7,11.700000000000001,mm,,,CT SCAN,INDEPENDENT ASSESSOR,RADIOLOGIST 1,Y,12,WEEK 24,2014-06-18,168
217,CDISCPILOT01,TR,01-701-1015,217,TARGET,R1-A4,R1-T05,DIAMETER,Diameter,14,mm,14,14,mm,,,CT SCAN,INDEPENDENT ASSESSOR,RADIOLOGIST 1,Y,12,WEEK 24,2014-06-18,168
218,CDISCPILOT01,TR,01-701-1015,218,TARGET,R1-A4,R1-T05,LDIAM,Longest Diameter,14,mm,14,14,mm,,,CT SCAN,INDEPENDENT ASSESSOR,RADIOLOGIST 1,Y,12,WEEK 24,2014-06-18,168
219,CDISCPILOT01,TR,01-701-1015,219,TARGET,R1-A4,R1-T05,LPERP,Longest Perpendicular,12.6,mm,12.6,12.6,mm,,,CT SCAN,INDEPENDENT ASSESSOR,RADIOLOGIST 1,Y,12,WEEK 24,2014-06-18,168
220,CDISCPILOT01,TR,01-701-1015,220,TARGET,R2-A4,R2-T01,DIAMETER,Diameter,7,mm,7,7,mm,,,CT SCAN,INDEPENDENT ASSESSOR,RADIOLOGIST 2,,12,WEEK 24,2014-06-18,168
221,CDISCPILOT01,TR,01-701-1015,221,TARGET,R2-A4,R2-T01,LDIAM,Longest Diameter,7,mm,7,7,mm,,,CT SCAN,INDEPENDENT ASSESSOR,RADIOLOGIST 2,,12,WEEK 24,2014-06-18,168
222,CDISCPILOT01,TR,01-701-1015,222,TARGET,R2-A4,R2-T01,LPERP,Longest Perpendicular,6.3,mm,6.3,6.3,mm,,,CT SCAN,INDEPENDENT ASSESSOR,RADIOLOGIST 2,,12,WEEK 24,2014-06-18,168
223,CDISCPILOT01,TR,01-701-1015,223,TARGET,R2-A4,R2-T02,DIAMETER,Diameter,7,mm,7,7,mm,,,CT SCAN,INDEPENDENT ASSESSOR,RADIOLOGIST 2,,12,WEEK 24,2014-06-18,168
224,CDISCPILOT01,TR,01-701-1015,224,TARGET,R2-A4,R2-T02,LDIAM,Longest Diameter,7,mm,7,7,mm,,,CT SCAN,INDEPENDENT ASSESSOR,RADIOLOGIST 2,,12,WEEK 24,2014-06-18,168
225,CDISCPILOT01,TR,01-701-1015,225,TARGET,R2-A4,R2-T02,LPERP,Longest Perpendicular,6.3,mm,6.3,6.3,mm,,,CT SCAN,INDEPENDENT ASSESSOR,RADIOLOGIST 2,,12,WEEK 24,2014-06-18,168
226,CDISCPILOT01,TR,01-701-1015,226,TARGET,R2-A4,R2-T03,DIAMETER,Diameter,7,mm,7,7,mm,,,CT SCAN,INDEPENDENT ASSESSOR,RADIOLOGIST 2,,12,WEEK 24,2014-06-18,168
227,CDISCPILOT01,TR,01-701-1015,227,TARGET,R2-A4,R2-T03,LDIAM,Longest Diameter,7,mm,7,7,mm,,,CT SCAN,INDEPENDENT ASSESSOR,RADIOLOGIST 2,,12,WEEK 24,2014-06-18,168
228,CDISCPILOT01,TR,01-701-1015,228,TARGET,R2-A4,R2-T03,LPERP,Longest Perpendicular,6.3,mm,6.3,6.3,mm,,,CT SCAN,INDEPENDENT ASSESSOR,RADIOLOGIST 2,,12,WEEK 24,2014-06-18,168
229,CDISCPILOT01,TR,01-701-1015,229,TARGET,R2-A4,R2-T04,DIAMETER,Diameter,7,mm,7,7,mm,,,CT SCAN,INDEPENDENT ASSESSOR,RADIOLOGIST 2,,12,WEEK 24,2014-06-18,168
230,CDISCPILOT01,TR,01-701-1015,230,TARGET,R2-A4,R2-T04,LDIAM,Longest Diameter,7,mm,7,7,mm,,,CT SCAN,INDEPENDENT ASSESSOR,RADIOLOGIST 2,,12,WEEK 24,2014-06-18,168
231,CDISCPILOT01,TR,01-701-1015,231,TARGET,R2-A4,R2-T04,LPERP,Longest Perpendicular,6.3,mm,6.3,6.3,mm,,,CT SCAN,INDEPENDENT ASSESSOR,RADIOLOGIST 2,,12,WEEK 24,2014-06-18,168
232,CDISCPILOT01,TR,01-701-1015,232,TARGET,R2-A4,R2-T05,DIAMETER,Diameter,5,mm,5,5,mm,,,CT SCAN,INDEPENDENT ASSESSOR,RADIOLOGIST 2,,12,WEEK 24,2014-06-18,168
233,CDISCPILOT01,TR,01-701-1015,233,TARGET,R2-A4,R2-T05,LDIAM,Longest Diameter,5,mm,5,5,mm,,,CT SCAN,INDEPENDENT ASSESSOR,RADIOLOGIST 2,,12,WEEK 24,2014-06-18,168
234,CDISCPILOT01,TR,01-701-1015,234,TARGET,R2-A4,R2-T05,LPERP,Longest Perpendicular,4.5,mm,4.5,4.5,mm,,,CT SCAN,INDEPENDENT ASSESSOR,RADIOLOGIST 2,,12,WEEK 24,2014-06-18,168
235,CDISCPILOT01,TR,01-701-1015,235,TARGET,A4,T01,DIAMETER,Diameter,5,mm,5,5,mm,,,CT SCAN,INVESTIGATOR,,,12,WEEK 24,2014-06-18,168
236,CDISCPILOT01,TR,01-701-1015,236,TARGET,A4,T01,LDIAM,Longest Diameter,5,mm,5,5,mm,,,CT SCAN,INVESTIGATOR,,,12,WEEK 24,2014-06-18,168
237,CDISCPILOT01,TR,01-701-1015,237,TARGET,A4,T01,LPERP,Longest Perpendicular,4.5,mm,4.5,4.5,mm,,,CT SCAN,INVESTIGATOR,,,12,WEEK 24,2014-06-18,168
238,CDISCPILOT01,TR,01-701-1015,238,TARGET,A4,T02,DIAMETER,Diameter,11,mm,11,11,mm,,,CT SCAN,INVESTIGATOR,,,12,WEEK 24,2014-06-18,168
239,CDISCPILOT01,TR,01-701-1015,239,TARGET,A4,T02,LDIAM,Longest Diameter,11,mm,11,11,mm,,,CT SCAN,INVESTIGATOR,,,12,WEEK 24,2014-06-18,168
240,CDISCPILOT01,TR,01-701-1015,240,TARGET,A4,T02,LPERP,Longest Perpendicular,9.9,mm,9.9,9.9,mm,,,CT SCAN,INVESTIGATOR,,,12,WEEK 24,2014-06-18,168
241,CDISCPILOT01,TR,01-701-1015,241,TARGET,A4,T03,DIAMETER,Diameter,13,mm,13,13,mm,,,CT SCAN,INVESTIGATOR,,,12,WEEK 24,2014-06-18,168
242,CDISCPILOT01,TR,01-701-1015,242,TARGET,A4,T03,LDIAM,Longest Diameter,13,mm,13,13,mm,,,CT SCAN,INVESTIGATOR,,,12,WEEK 24,2014-06-18,168
243,CDISCPILOT01,TR,01-701-1015,243,TARGET,A4,T03,LPERP,Longest Perpendicular,11.7,mm,11.7,11.700000000000001,mm,,,CT SCAN,INVESTIGATOR,,,12,WEEK 24,2014-06-18,168
244,CDISCPILOT01,TR,01-701-1015,244,TARGET,A4,T04,DIAMETER,Diameter,12,mm,12,12,mm,,,CT SCAN,INVESTIGATOR,,,12,WEEK 24,2014-06-18,168
245,CDISCPILOT01,TR,01-701-1015,245,TARGET,A4,T04,LDIAM,Longest Diameter,12,mm,12,12,mm,,,CT SCAN,INVESTIGATOR,,,12,WEEK 24,2014-06-18,168
246,CDISCPILOT01,TR,01-701-1015,246,TARGET,A4,T04,LPERP,Longest Perpendicular,10.8,mm,10.8,10.8,mm,,,CT SCAN,INVESTIGATOR,,,12,WEEK 24,2014-06-18,168
247,CDISCPILOT01,TR,01-701-1015,247,TARGET,A4,T05,DIAMETER,Diameter,14,mm,14,14,mm,,,CT SCAN,INVESTIGATOR,,,12,WEEK 24,2014-06-18,168
248,CDISCPILOT01,TR,01-701-1015,248,TARGET,A4,T05,LDIAM,Longest Diameter,14,mm,14,14,mm,,,CT SCAN,INVESTIGATOR,,,12,WEEK 24,2014-06-18,168
249,CDISCPILOT01,TR,01-701-1015,249,TARGET,A4,T05,LPERP,Longest Perpendicular,12.6,mm,12.6,12.6,mm,,,CT SCAN,INVESTIGATOR,,,12,WEEK 24,2014-06-18,168
250,CDISCPILOT01,TR,01-701-1015,250,TARGET,R1-A4,,SUMDIAM,Sum of Diameter,54,mm,54,54,mm,,,CT SCAN,INDEPENDENT ASSESSOR,RADIOLOGIST 1,Y,12,WEEK 24,2014-06-18,168
251,CDISCPILOT01,TR,01-701-1015,251,TARGET,R2-A4,,SUMDIAM,Sum of Diameter,33,mm,33,33,mm,,,CT SCAN,INDEPENDENT ASSESSOR,RADIOLOGIST 2,,12,WEEK 24,2014-06-18,168
252,CDISCPILOT01,TR,01-701-1015,252,TARGET,A4,,SUMDIAM,Sum of Diameter,55,mm,55,55,mm,,,CT SCAN,INVESTIGATOR,,,12,WEEK 24,2014-06-18,168
253,CDISCPILOT01,TR,01-701-1023,1,NON-TARGET,A1,NT01,TUMSTATE,Tumor State,PRESENT,,PRESENT,,,,,CT SCAN,INVESTIGATOR,,,3,BASELINE,2012-08-05,1
254,CDISCPILOT01,TR,01-701-1023,2,NON-TARGET,A1,NT02,TUMSTATE,Tumor State,PRESENT,,PRESENT,,,,,CT SCAN,INVESTIGATOR,,,3,BASELINE,2012-08-05,1
255,CDISCPILOT01,TR,01-701-1023,3,NON-TARGET,A1,NT03,TUMSTATE,Tumor State,PRESENT,,PRESENT,,,,,CT SCAN,INVESTIGATOR,,,3,BASELINE,2012-08-05,1
256,CDISCPILOT01,TR,01-701-1023,4,NON-TARGET,A1,NT04,TUMSTATE,Tumor State,PRESENT,,PRESENT,,,,,CT SCAN,INVESTIGATOR,,,3,BASELINE,2012-08-05,1
257,CDISCPILOT01,TR,01-701-1023,5,NON-TARGET,A1,NT05,TUMSTATE,Tumor State,PRESENT,,PRESENT,,,,,CT SCAN,INVESTIGATOR,,,3,BASELINE,2012-08-05,1
258,CDISCPILOT01,TR,01-701-1023,6,NON-TARGET,R1-A1,R1-NT01,TUMSTATE,Tumor State,PRESENT,,PRESENT,,,,,CT SCAN,INDEPENDENT ASSESSOR,RADIOLOGIST 1,Y,3,BASELINE,2012-08-05,1
259,CDISCPILOT01,TR,01-701-1023,7,NON-TARGET,R1-A1,R1-NT02,TUMSTATE,Tumor State,PRESENT,,PRESENT,,,,,CT SCAN,INDEPENDENT ASSESSOR,RADIOLOGIST 1,Y,3,BASELINE,2012-08-05,1
260,CDISCPILOT01,TR,01-701-1023,8,NON-TARGET,R1-A1,R1-NT03,TUMSTATE,Tumor State,PRESENT,,PRESENT,,,,,CT SCAN,INDEPENDENT ASSESSOR,RADIOLOGIST 1,Y,3,BASELINE,2012-08-05,1
261,CDISCPILOT01,TR,01-701-1023,9,NON-TARGET,R1-A1,R1-NT04,TUMSTATE,Tumor State,PRESENT,,PRESENT,,,,,CT SCAN,INDEPENDENT ASSESSOR,RADIOLOGIST 1,Y,3,BASELINE,2012-08-05,1
262,CDISCPILOT01,TR,01-701-1023,10,NON-TARGET,R1-A1,R1-NT05,TUMSTATE,Tumor State,PRESENT,,PRESENT,,,,,CT SCAN,INDEPENDENT ASSESSOR,RADIOLOGIST 1,Y,3,BASELINE,2012-08-05,1
263,CDISCPILOT01,TR,01-701-1023,11,NON-TARGET,R2-A1,R2-NT01,TUMSTATE,Tumor State,PRESENT,,PRESENT,,,,,CT SCAN,INDEPENDENT ASSESSOR,RADIOLOGIST 2,,3,BASELINE,2012-08-05,1
264,CDISCPILOT01,TR,01-701-1023,12,NON-TARGET,R2-A1,R2-NT02,TUMSTATE,Tumor State,PRESENT,,PRESENT,,,,,CT SCAN,INDEPENDENT ASSESSOR,RADIOLOGIST 2,,3,BASELINE,2012-08-05,1
265,CDISCPILOT01,TR,01-701-1023,13,NON-TARGET,R2-A1,R2-NT03,TUMSTATE,Tumor State,PRESENT,,PRESENT,,,,,CT SCAN,INDEPENDENT ASSESSOR,RADIOLOGIST 2,,3,BASELINE,2012-08-05,1
266,CDISCPILOT01,TR,01-701-1023,14,NON-TARGET,R2-A1,R2-NT04,TUMSTATE,Tumor State,PRESENT,,PRESENT,,,,,CT SCAN,INDEPENDENT ASSESSOR,RADIOLOGIST 2,,3,BASELINE,2012-08-05,1
267,CDISCPILOT01,TR,01-701-1023,15,NON-TARGET,R2-A1,R2-NT05,TUMSTATE,Tumor State,PRESENT,,PRESENT,,,,,CT SCAN,INDEPENDENT ASSESSOR,RADIOLOGIST 2,,3,BASELINE,2012-08-05,1
268,CDISCPILOT01,TR,01-701-1023,16,TARGET,R1-A1,R1-T01,DIAMETER,Diameter,12,mm,12,12,mm,,,CT SCAN,INDEPENDENT ASSESSOR,RADIOLOGIST 1,Y,3,BASELINE,2012-08-05,1
269,CDISCPILOT01,TR,01-701-1023,17,TARGET,R1-A1,R1-T01,LDIAM,Longest Diameter,12,mm,12,12,mm,,,CT SCAN,INDEPENDENT ASSESSOR,RADIOLOGIST 1,Y,3,BASELINE,2012-08-05,1
270,CDISCPILOT01,TR,01-701-1023,18,TARGET,R1-A1,R1-T01,LPERP,Longest Perpendicular,10.8,mm,10.8,10.8,mm,,,CT SCAN,INDEPENDENT ASSESSOR,RADIOLOGIST 1,Y,3,BASELINE,2012-08-05,1
271,CDISCPILOT01,TR,01-701-1023,19,TARGET,R1-A1,R1-T02,DIAMETER,Diameter,13,mm,13,13,mm,,,CT SCAN,INDEPENDENT ASSESSOR,RADIOLOGIST 1,Y,3,BASELINE,2012-08-05,1
272,CDISCPILOT01,TR,01-701-1023,20,TARGET,R1-A1,R1-T02,LDIAM,Longest Diameter,13,mm,13,13,mm,,,CT SCAN,INDEPENDENT ASSESSOR,RADIOLOGIST 1,Y,3,BASELINE,2012-08-05,1
273,CDISCPILOT01,TR,01-701-1023,21,TARGET,R1-A1,R1-T02,LPERP,Longest Perpendicular,11.7,mm,11.7,11.700000000000001,mm,,,CT SCAN,INDEPENDENT ASSESSOR,RADIOLOGIST 1,Y,3,BASELINE,2012-08-05,1
274,CDISCPILOT01,TR,01-701-1023,22,TARGET,R1-A1,R1-T03,DIAMETER,Diameter,16,mm,16,16,mm,,,CT SCAN,INDEPENDENT ASSESSOR,RADIOLOGIST 1,Y,3,BASELINE,2012-08-05,1
275,CDISCPILOT01,TR,01-701-1023,23,TARGET,R1-A1,R1-T03,LDIAM,Longest Diameter,16,mm,16,16,mm,,,CT SCAN,INDEPENDENT ASSESSOR,RADIOLOGIST 1,Y,3,BASELINE,2012-08-05,1
276,CDISCPILOT01,TR,01-701-1023,24,TARGET,R1-A1,R1-T03,LPERP,Longest Perpendicular,14.4,mm,14.4,14.4,mm,,,CT SCAN,INDEPENDENT ASSESSOR,RADIOLOGIST 1,Y,3,BASELINE,2012-08-05,1
277,CDISCPILOT01,TR,01-701-1023,25,TARGET,R1-A1,R1-T04,DIAMETER,Diameter,16,mm,16,16,mm,,,CT SCAN,INDEPENDENT ASSESSOR,RADIOLOGIST 1,Y,3,BASELINE,2012-08-05,1
278,CDISCPILOT01,TR,01-701-1023,26,TARGET,R1-A1,R1-T04,LDIAM,Longest Diameter,16,mm,16,16,mm,,,CT SCAN,INDEPENDENT ASSESSOR,RADIOLOGIST 1,Y,3,BASELINE,2012-08-05,1
279,CDISCPILOT01,TR,01-701-1023,27,TARGET,R1-A1,R1-T04,LPERP,Longest Perpendicular,14.4,mm,14.4,14.4,mm,,,CT SCAN,INDEPENDENT ASSESSOR,RADIOLOGIST 1,Y,3,BASELINE,2012-08-05,1
280,CDISCPILOT01,TR,01-701-1023,28,TARGET,R1-A1,R1-T05,DIAMETER,Diameter,12,mm,12,12,mm,,,CT SCAN,INDEPENDENT ASSESSOR,RADIOLOGIST 1,Y,3,BASELINE,2012-08-05,1
281,CDISCPILOT01,TR,01-701-1023,29,TARGET,R1-A1,R1-T05,LDIAM,Longest Diameter,12,mm,12,12,mm,,,CT SCAN,INDEPENDENT ASSESSOR,RADIOLOGIST 1,Y,3,BASELINE,2012-08-05,1
282,CDISCPILOT01,TR,01-701-1023,30,TARGET,R1-A1,R1-T05,LPERP,Longest Perpendicular,10.8,mm,10.8,10.8,mm,,,CT SCAN,INDEPENDENT ASSESSOR,RADIOLOGIST 1,Y,3,BASELINE,2012-08-05,1
283,CDISCPILOT01,TR,01-701-1023,31,TARGET,R2-A1,R2-T01,DIAMETER,Diameter,11,mm,11,11,mm,,,CT SCAN,INDEPENDENT ASSESSOR,RADIOLOGIST 2,,3,BASELINE,2012-08-05,1
284,CDISCPILOT01,TR,01-701-1023,32,TARGET,R2-A1,R2-T01,LDIAM,Longest Diameter,11,mm,11,11,mm,,,CT SCAN,INDEPENDENT ASSESSOR,RADIOLOGIST 2,,3,BASELINE,2012-08-05,1
285,CDISCPILOT01,TR,01-701-1023,33,TARGET,R2-A1,R2-T01,LPERP,Longest Perpendicular,9.9,mm,9.9,9.9,mm,,,CT SCAN,INDEPENDENT ASSESSOR,RADIOLOGIST 2,,3,BASELINE,2012-08-05,1
286,CDISCPILOT01,TR,01-701-1023,34,TARGET,R2-A1,R2-T02,DIAMETER,Diameter,16,mm,16,16,mm,,,CT SCAN,INDEPENDENT ASSESSOR,RADIOLOGIST 2,,3,BASELINE,2012-08-05,1
287,CDISCPILOT01,TR,01-701-1023,35,TARGET,R2-A1,R2-T02,LDIAM,Longest Diameter,16,mm,16,16,mm,,,CT SCAN,INDEPENDENT ASSESSOR,RADIOLOGIST 2,,3,BASELINE,2012-08-05,1
288,CDISCPILOT01,TR,01-701-1023,36,TARGET,R2-A1,R2-T02,LPERP,Longest Perpendicular,14.4,mm,14.4,14.4,mm,,,CT SCAN,INDEPENDENT ASSESSOR,RADIOLOGIST 2,,3,BASELINE,2012-08-05,1
289,CDISCPILOT01,TR,01-701-1023,37,TARGET,R2-A1,R2-T03,DIAMETER,Diameter,13,mm,13,13,mm,,,CT SCAN,INDEPENDENT ASSESSOR,RADIOLOGIST 2,,3,BASELINE,2012-08-05,1
290,CDISCPILOT01,TR,01-701-1023,38,TARGET,R2-A1,R2-T03,LDIAM,Longest Diameter,14.3,mm,14.3,14.3,mm,,,CT SCAN,INDEPENDENT ASSESSOR,RADIOLOGIST 2,,3,BASELINE,2012-08-05,1
291,CDISCPILOT01,TR,01-701-1023,39,TARGET,R2-A1,R2-T03,LPERP,Longest Perpendicular,13,mm,13,13,mm,,,CT SCAN,INDEPENDENT ASSESSOR,RADIOLOGIST 2,,3,BASELINE,2012-08-05,1
292,CDISCPILOT01,TR,01-701-1023,40,TARGET,R2-A1,R2-T04,DIAMETER,Diameter,15,mm,15,15,mm,,,CT SCAN,INDEPENDENT ASSESSOR,RADIOLOGIST 2,,3,BASELINE,2012-08-05,1
293,CDISCPILOT01,TR,01-701-1023,41,TARGET,R2-A1,R2-T04,LDIAM,Longest Diameter,15,mm,15,15,mm,,,CT SCAN,INDEPENDENT ASSESSOR,RADIOLOGIST 2,,3,BASELINE,2012-08-05,1
294,CDISCPILOT01,TR,01-701-1023,42,TARGET,R2-A1,R2-T04,LPERP,Longest Perpendicular,13.5,mm,13.5,13.5,mm,,,CT SCAN,INDEPENDENT ASSESSOR,RADIOLOGIST 2,,3,BASELINE,2012-08-05,1
295,CDISCPILOT01,TR,01-701-1023,43,TARGET,R2-A1,R2-T05,DIAMETER,Diameter,13,mm,13,13,mm,,,CT SCAN,INDEPENDENT ASSESSOR,RADIOLOGIST 2,,3,BASELINE,2012-08-05,1
296,CDISCPILOT01,TR,01-701-1023,44,TARGET,R2-A1,R2-T05,LDIAM,Longest Diameter,13,mm,13,13,mm,,,CT SCAN,INDEPENDENT ASSESSOR,RADIOLOGIST 2,,3,BASELINE,2012-08-05,1
297,CDISCPILOT01,TR,01-701-1023,45,TARGET,R2-A1,R2-T05,LPERP,Longest Perpendicular,11.7,mm,11.7,11.700000000000001,mm,,,CT SCAN,INDEPENDENT ASSESSOR,RADIOLOGIST 2,,3,BASELINE,2012-08-05,1
298,CDISCPILOT01,TR,01-701-1023,46,TARGET,A1,T01,DIAMETER,Diameter,10,mm,10,10,mm,,,CT SCAN,INVESTIGATOR,,,3,BASELINE,2012-08-05,1
299,CDISCPILOT01,TR,01-701-1023,47,TARGET,A1,T01,LDIAM,Longest Diameter,10,mm,10,10,mm,,,CT SCAN,INVESTIGATOR,,,3,BASELINE,2012-08-05,1
300,CDISCPILOT01,TR,01-701-1023,48,TARGET,A1,T01,LPERP,Longest Perpendicular,9,mm,9,9,mm,,,CT SCAN,INVESTIGATOR,,,3,BASELINE,2012-08-05,1
301,CDISCPILOT01,TR,01-701-1023,49,TARGET,A1,T02,DIAMETER,Diameter,13,mm,13,13,mm,,,CT SCAN,INVESTIGATOR,,,3,BASELINE,2012-08-05,1
302,CDISCPILOT01,TR,01-701-1023,50,TARGET,A1,T02,LDIAM,Longest Diameter,13,mm,13,13,mm,,,CT SCAN,INVESTIGATOR,,,3,BASELINE,2012-08-05,1
303,CDISCPILOT01,TR,01-701-1023,51,TARGET,A1,T02,LPERP,Longest Perpendicular,11.7,mm,11.7,11.700000000000001,mm,,,CT SCAN,INVESTIGATOR,,,3,BASELINE,2012-08-05,1
304,CDISCPILOT01,TR,01-701-1023,52,TARGET,A1,T03,DIAMETER,Diameter,19,mm,19,19,mm,,,CT SCAN,INVESTIGATOR,,,3,BASELINE,2012-08-05,1
305,CDISCPILOT01,TR,01-701-1023,53,TARGET,A1,T03,LDIAM,Longest Diameter,20.9,mm,20.9,20.900000000000002,mm,,,CT SCAN,INVESTIGATOR,,,3,BASELINE,2012-08-05,1
306,CDISCPILOT01,TR,01-701-1023,54,TARGET,A1,T03,LPERP,Longest Perpendicular,19,mm,19,19,mm,,,CT SCAN,INVESTIGATOR,,,3,BASELINE,2012-08-05,1
307,CDISCPILOT01,TR,01-701-1023,55,TARGET,A1,T04,DIAMETER,Diameter,15,mm,15,15,mm,,,CT SCAN,INVESTIGATOR,,,3,BASELINE,2012-08-05,1
308,CDISCPILOT01,TR,01-701-1023,56,TARGET,A1,T04,LDIAM,Longest Diameter,15,mm,15,15,mm,,,CT SCAN,INVESTIGATOR,,,3,BASELINE,2012-08-05,1
309,CDISCPILOT01,TR,01-701-1023,57,TARGET,A1,T04,LPERP,Longest Perpendicular,13.5,mm,13.5,13.5,mm,,,CT SCAN,INVESTIGATOR,,,3,BASELINE,2012-08-05,1
310,CDISCPILOT01,TR,01-701-1023,58,TARGET,A1,T05,DIAMETER,Diameter,14,mm,14,14,mm,,,CT SCAN,INVESTIGATOR,,,3,BASELINE,2012-08-05,1
311,CDISCPILOT01,TR,01-701-1023,59,TARGET,A1,T05,LDIAM,Longest Diameter,14,mm,14,14,mm,,,CT SCAN,INVESTIGATOR,,,3,BASELINE,2012-08-05,1
312,CDISCPILOT01,TR,01-701-1023,60,TARGET,A1,T05,LPERP,Longest Perpendicular,12.6,mm,12.6,12.6,mm,,,CT SCAN,INVESTIGATOR,,,3,BASELINE,2012-08-05,1
313,CDISCPILOT01,TR,01-701-1023,61,TARGET,R1-A1,,SUMDIAM,Sum of Diameter,69,mm,69,69,mm,,,CT SCAN,INDEPENDENT ASSESSOR,RADIOLOGIST 1,Y,3,BASELINE,2012-08-05,1
314,CDISCPILOT01,TR,01-701-1023,62,TARGET,R2-A1,,SUMDIAM,Sum of Diameter,68,mm,68,68,mm,,,CT SCAN,INDEPENDENT ASSESSOR,RADIOLOGIST 2,,3,BASELINE,2012-08-05,1
315,CDISCPILOT01,TR,01-701-1023,63,TARGET,A1,,SUMDIAM,Sum of Diameter,71,mm,71,71,mm,,,CT SCAN,INVESTIGATOR,,,3,BASELINE,2012-08-05,1
316,CDISCPILOT01,TR,01-701-1028,1,NON-TARGET,A1,NT01,TUMSTATE,Tumor State,PRESENT,,PRESENT,,,,,CT SCAN,INVESTIGATOR,,,3,BASELINE,2013-07-19,1
317,CDISCPILOT01,TR,01-701-1028,2,NON-TARGET,A1,NT02,TUMSTATE,Tumor State,PRESENT,,PRESENT,,,,,CT SCAN,INVESTIGATOR,,,3,BASELINE,2013-07-19,1
318,CDISCPILOT01,TR,01-701-1028,3,NON-TARGET,A1,NT03,TUMSTATE,Tumor State,PRESENT,,PRESENT,,,,,CT SCAN,INVESTIGATOR,,,3,BASELINE,2013-07-19,1
319,CDISCPILOT01,TR,01-701-1028,4,NON-TARGET,A1,NT04,TUMSTATE,Tumor State,PRESENT,,PRESENT,,,,,CT SCAN,INVESTIGATOR,,,3,BASELINE,2013-07-19,1
320,CDISCPILOT01,TR,01-701-1028,5,NON-TARGET,A1,NT05,TUMSTATE,Tumor State,PRESENT,,PRESENT,,,,,CT SCAN,INVESTIGATOR,,,3,BASELINE,2013-07-19,1
321,CDISCPILOT01,TR,01-701-1028,6,NON-TARGET,R1-A1,R1-NT01,TUMSTATE,Tumor State,PRESENT,,PRESENT,,,,,CT SCAN,INDEPENDENT ASSESSOR,RADIOLOGIST 1,Y,3,BASELINE,2013-07-19,1
322,CDISCPILOT01,TR,01-701-1028,7,NON-TARGET,R1-A1,R1-NT02,TUMSTATE,Tumor State,PRESENT,,PRESENT,,,,,CT SCAN,INDEPENDENT ASSESSOR,RADIOLOGIST 1,Y,3,BASELINE,2013-07-19,1
323,CDISCPILOT01,TR,01-701-1028,8,NON-TARGET,R1-A1,R1-NT03,TUMSTATE,Tumor State,PRESENT,,PRESENT,,,,,CT SCAN,INDEPENDENT ASSESSOR,RADIOLOGIST 1,Y,3,BASELINE,2013-07-19,1
324,CDISCPILOT01,TR,01-701-1028,9,NON-TARGET,R1-A1,R1-NT04,TUMSTATE,Tumor State,PRESENT,,PRESENT,,,,,CT SCAN,INDEPENDENT ASSESSOR,RADIOLOGIST 1,Y,3,BASELINE,2013-07-19,1
325,CDISCPILOT01,TR,01-701-1028,10,NON-TARGET,R1-A1,R1-NT05,TUMSTATE,Tumor State,PRESENT,,PRESENT,,,,,CT SCAN,INDEPENDENT ASSESSOR,RADIOLOGIST 1,Y,3,BASELINE,2013-07-19,1
326,CDISCPILOT01,TR,01-701-1028,11,NON-TARGET,R2-A1,R2-NT01,TUMSTATE,Tumor State,PRESENT,,PRESENT,,,,,CT SCAN,INDEPENDENT ASSESSOR,RADIOLOGIST 2,,3,BASELINE,2013-07-19,1
327,CDISCPILOT01,TR,01-701-1028,12,NON-TARGET,R2-A1,R2-NT02,TUMSTATE,Tumor State,PRESENT,,PRESENT,,,,,CT SCAN,INDEPENDENT ASSESSOR,RADIOLOGIST 2,,3,BASELINE,2013-07-19,1
328,CDISCPILOT01,TR,01-701-1028,13,NON-TARGET,R2-A1,R2-NT03,TUMSTATE,Tumor State,PRESENT,,PRESENT,,,,,CT SCAN,INDEPENDENT ASSESSOR,RADIOLOGIST 2,,3,BASELINE,2013-07-19,1
329,CDISCPILOT01,TR,01-701-1028,14,NON-TARGET,R2-A1,R2-NT04,TUMSTATE,Tumor State,PRESENT,,PRESENT,,,,,CT SCAN,INDEPENDENT ASSESSOR,RADIOLOGIST 2,,3,BASELINE,2013-07-19,1
330,CDISCPILOT01,TR,01-701-1028,15,NON-TARGET,R2-A1,R2-NT05,TUMSTATE,Tumor State,PRESENT,,PRESENT,,,,,CT SCAN,INDEPENDENT ASSESSOR,RADIOLOGIST 2,,3,BASELINE,2013-07-19,1
331,CDISCPILOT01,TR,01-701-1028,16,TARGET,R1-A1,R1-T01,DIAMETER,Diameter,5,mm,5,5,mm,,,CT SCAN,INDEPENDENT ASSESSOR,RADIOLOGIST 1,Y,3,BASELINE,2013-07-19,1
332,CDISCPILOT01,TR,01-701-1028,17,TARGET,R1-A1,R1-T01,LDIAM,Longest Diameter,5,mm,5,5,mm,,,CT SCAN,INDEPENDENT ASSESSOR,RADIOLOGIST 1,Y,3,BASELINE,2013-07-19,1
333,CDISCPILOT01,TR,01-701-1028,18,TARGET,R1-A1,R1-T01,LPERP,Longest Perpendicular,4.5,mm,4.5,4.5,mm,,,CT SCAN,INDEPENDENT ASSESSOR,RADIOLOGIST 1,Y,3,BASELINE,2013-07-19,1
334,CDISCPILOT01,TR,01-701-1028,19,TARGET,R1-A1,R1-T02,DIAMETER,Diameter,14,mm,14,14,mm,,,CT SCAN,INDEPENDENT ASSESSOR,RADIOLOGIST 1,Y,3,BASELINE,2013-07-19,1
335,CDISCPILOT01,TR,01-701-1028,20,TARGET,R1-A1,R1-T02,LDIAM,Longest Diameter,15.4,mm,15.4,15.400000000000002,mm,,,CT SCAN,INDEPENDENT ASSESSOR,RADIOLOGIST 1,Y,3,BASELINE,2013-07-19,1
336,CDISCPILOT01,TR,01-701-1028,21,TARGET,R1-A1,R1-T02,LPERP,Longest Perpendicular,14,mm,14,14,mm,,,CT SCAN,INDEPENDENT ASSESSOR,RADIOLOGIST 1,Y,3,BASELINE,2013-07-19,1
337,CDISCPILOT01,TR,01-701-1028,22,TARGET,R1-A1,R1-T03,DIAMETER,Diameter,5,mm,5,5,mm,,,CT SCAN,INDEPENDENT ASSESSOR,RADIOLOGIST 1,Y,3,BASELINE,2013-07-19,1
338,CDISCPILOT01,TR,01-701-1028,23,TARGET,R1-A1,R1-T03,LDIAM,Longest Diameter,5,mm,5,5,mm,,,CT SCAN,INDEPENDENT ASSESSOR,RADIOLOGIST 1,Y,3,BASELINE,2013-07-19,1
339,CDISCPILOT01,TR,01-701-1028,24,TARGET,R1-A1,R1-T03,LPERP,Longest Perpendicular,4.5,mm,4.5,4.5,mm,,,CT SCAN,INDEPENDENT ASSESSOR,RADIOLOGIST 1,Y,3,BASELINE,2013-07-19,1
340,CDISCPILOT01,TR,01-701-1028,25,TARGET,R1-A1,R1-T04,DIAMETER,Diameter,5,mm,5,5,mm,,,CT SCAN,INDEPENDENT ASSESSOR,RADIOLOGIST 1,Y,3,BASELINE,2013-07-19,1
341,CDISCPILOT01,TR,01-701-1028,26,TARGET,R1-A1,R1-T04,LDIAM,Longest Diameter,5,mm,5,5,mm,,,CT SCAN,INDEPENDENT ASSESSOR,RADIOLOGIST 1,Y,3,BASELINE,2013-07-19,1
342,CDISCPILOT01,TR,01-701-1028,27,TARGET,R1-A1,R1-T04,LPERP,Longest Perpendicular,4.5,mm,4.5,4.5,mm,,,CT SCAN,INDEPENDENT ASSESSOR,RADIOLOGIST 1,Y,3,BASELINE,2013-07-19,1
343,CDISCPILOT01,TR,01-701-1028,28,TARGET,R1-A1,R1-T05,DIAMETER,Diameter,14,mm,14,14,mm,,,CT SCAN,INDEPENDENT ASSESSOR,RADIOLOGIST 1,Y,3,BASELINE,2013-07-19,1
344,CDISCPILOT01,TR,01-701-1028,29,TARGET,R1-A1,R1-T05,LDIAM,Longest Diameter,14,mm,14,14,mm,,,CT SCAN,INDEPENDENT ASSESSOR,RADIOLOGIST 1,Y,3,BASELINE,2013-07-19,1
345,CDISCPILOT01,TR,01-701-1028,30,TARGET,R1-A1,R1-T05,LPERP,Longest Perpendicular,12.6,mm,12.6,12.6,mm,,,CT SCAN,INDEPENDENT ASSESSOR,RADIOLOGIST 1,Y,3,BASELINE,2013-07-19,1
346,CDISCPILOT01,TR,01-701-1028,31,TARGET,R2-A1,R2-T01,DIAMETER,Diameter,6,mm,6,6,mm,,,CT SCAN,INDEPENDENT ASSESSOR,RADIOLOGIST 2,,3,BASELINE,2013-07-19,1
347,CDISCPILOT01,TR,01-701-1028,32,TARGET,R2-A1,R2-T01,LDIAM,Longest Diameter,6,mm,6,6,mm,,,CT SCAN,INDEPENDENT ASSESSOR,RADIOLOGIST 2,,3,BASELINE,2013-07-19,1
348,CDISCPILOT01,TR,01-701-1028,33,TARGET,R2-A1,R2-T01,LPERP,Longest Perpendicular,5.4,mm,5.4,5.4,mm,,,CT SCAN,INDEPENDENT ASSESSOR,RADIOLOGIST 2,,3,BASELINE,2013-07-19,1
349,CDISCPILOT01,TR,01-701-1028,34,TARGET,R2-A1,R2-T02,DIAMETER,Diameter,13,mm,13,13,mm,,,CT SCAN,INDEPENDENT ASSESSOR,RADIOLOGIST 2,,3,BASELINE,2013-07-19,1
350,CDISCPILOT01,TR,01-701-1028,35,TARGET,R2-A1,R2-T02,LDIAM,Longest Diameter,13,mm,13,13,mm,,,CT SCAN,INDEPENDENT ASSESSOR,RADIOLOGIST 2,,3,BASELINE,2013-07-19,1
351,CDISCPILOT01,TR,01-701-1028,36,TARGET,R2-A1,R2-T02,LPERP,Longest Perpendicular,11.7,mm,11.7,11.700000000000001,mm,,,CT SCAN,INDEPENDENT ASSESSOR,RADIOLOGIST 2,,3,BASELINE,2013-07-19,1
352,CDISCPILOT01,TR,01-701-1028,37,TARGET,R2-A1,R2-T03,DIAMETER,Diameter,8,mm,8,8,mm,,,CT SCAN,INDEPENDENT ASSESSOR,RADIOLOGIST 2,,3,BASELINE,2013-07-19,1
353,CDISCPILOT01,TR,01-701-1028,38,TARGET,R2-A1,R2-T03,LDIAM,Longest Diameter,8,mm,8,8,mm,,,CT SCAN,INDEPENDENT ASSESSOR,RADIOLOGIST 2,,3,BASELINE,2013-07-19,1
354,CDISCPILOT01,TR,01-701-1028,39,TARGET,R2-A1,R2-T03,LPERP,Longest Perpendicular,7.2,mm,7.2,7.2,mm,,,CT SCAN,INDEPENDENT ASSESSOR,RADIOLOGIST 2,,3,BASELINE,2013-07-19,1
355,CDISCPILOT01,TR,01-701-1028,40,TARGET,R2-A1,R2-T04,DIAMETER,Diameter,12,mm,12,12,mm,,,CT SCAN,INDEPENDENT ASSESSOR,RADIOLOGIST 2,,3,BASELINE,2013-07-19,1
356,CDISCPILOT01,TR,01-701-1028,41,TARGET,R2-A1,R2-T04,LDIAM,Longest Diameter,12,mm,12,12,mm,,,CT SCAN,INDEPENDENT ASSESSOR,RADIOLOGIST 2,,3,BASELINE,2013-07-19,1
357,CDISCPILOT01,TR,01-701-1028,42,TARGET,R2-A1,R2-T04,LPERP,Longest Perpendicular,10.8,mm,10.8,10.8,mm,,,CT SCAN,INDEPENDENT ASSESSOR,RADIOLOGIST 2,,3,BASELINE,2013-07-19,1
358,CDISCPILOT01,TR,01-701-1028,43,TARGET,R2-A1,R2-T05,DIAMETER,Diameter,6,mm,6,6,mm,,,CT SCAN,INDEPENDENT ASSESSOR,RADIOLOGIST 2,,3,BASELINE,2013-07-19,1
359,CDISCPILOT01,TR,01-701-1028,44,TARGET,R2-A1,R2-T05,LDIAM,Longest Diameter,6,mm,6,6,mm,,,CT SCAN,INDEPENDENT ASSESSOR,RADIOLOGIST 2,,3,BASELINE,2013-07-19,1
360,CDISCPILOT01,TR,01-701-1028,45,TARGET,R2-A1,R2-T05,LPERP,Longest Perpendicular,5.4,mm,5.4,5.4,mm,,,CT SCAN,INDEPENDENT ASSESSOR,RADIOLOGIST 2,,3,BASELINE,2013-07-19,1
361,CDISCPILOT01,TR,01-701-1028,46,TARGET,A1,T01,DIAMETER,Diameter,7,mm,7,7,mm,,,CT SCAN,INVESTIGATOR,,,3,BASELINE,2013-07-19,1
362,CDISCPILOT01,TR,01-701-1028,47,TARGET,A1,T01,LDIAM,Longest Diameter,7,mm,7,7,mm,,,CT SCAN,INVESTIGATOR,,,3,BASELINE,2013-07-19,1
363,CDISCPILOT01,TR,01-701-1028,48,TARGET,A1,T01,LPERP,Longest Perpendicular,6.3,mm,6.3,6.3,mm,,,CT SCAN,INVESTIGATOR,,,3,BASELINE,2013-07-19,1
364,CDISCPILOT01,TR,01-701-1028,49,TARGET,A1,T02,DIAMETER,Diameter,8,mm,8,8,mm,,,CT SCAN,INVESTIGATOR,,,3,BASELINE,2013-07-19,1
365,CDISCPILOT01,TR,01-701-1028,50,TARGET,A1,T02,LDIAM,Longest Diameter,8,mm,8,8,mm,,,CT SCAN,INVESTIGATOR,,,3,BASELINE,2013-07-19,1
366,CDISCPILOT01,TR,01-701-1028,51,TARGET,A1,T02,LPERP,Longest Perpendicular,7.2,mm,7.2,7.2,mm,,,CT SCAN,INVESTIGATOR,,,3,BASELINE,2013-07-19,1
367,CDISCPILOT01,TR,01-701-1028,52,TARGET,A1,T03,DIAMETER,Diameter,14,mm,14,14,mm,,,CT SCAN,INVESTIGATOR,,,3,BASELINE,2013-07-19,1
368,CDISCPILOT01,TR,01-701-1028,53,TARGET,A1,T03,LDIAM,Longest Diameter,14,mm,14,14,mm,,,CT SCAN,INVESTIGATOR,,,3,BASELINE,2013-07-19,1
369,CDISCPILOT01,TR,01-701-1028,54,TARGET,A1,T03,LPERP,Longest Perpendicular,12.6,mm,12.6,12.6,mm,,,CT SCAN,INVESTIGATOR,,,3,BASELINE,2013-07-19,1
370,CDISCPILOT01,TR,01-701-1028,55,TARGET,A1,T04,DIAMETER,Diameter,14,mm,14,14,mm,,,CT SCAN,INVESTIGATOR,,,3,BASELINE,2013-07-19,1
371,CDISCPILOT01,TR,01-701-1028,56,TARGET,A1,T04,LDIAM,Longest Diameter,14,mm,14,14,mm,,,CT SCAN,INVESTIGATOR,,,3,BASELINE,2013-07-19,1
372,CDISCPILOT01,TR,01-701-1028,57,TARGET,A1,T04,LPERP,Longest Perpendicular,12.6,mm,12.6,12.6,mm,,,CT SCAN,INVESTIGATOR,,,3,BASELINE,2013-07-19,1
373,CDISCPILOT01,TR,01-701-1028,58,TARGET,A1,T05,DIAMETER,Diameter,12,mm,12,12,mm,,,CT SCAN,INVESTIGATOR,,,3,BASELINE,2013-07-19,1
374,CDISCPILOT01,TR,01-701-1028,59,TARGET,A1,T05,LDIAM,Longest Diameter,12,mm,12,12,mm,,,CT SCAN,INVESTIGATOR,,,3,BASELINE,2013-07-19,1
375,CDISCPILOT01,TR,01-701-1028,60,TARGET,A1,T05,LPERP,Longest Perpendicular,10.8,mm,10.8,10.8,mm,,,CT SCAN,INVESTIGATOR,,,3,BASELINE,2013-07-19,1
376,CDISCPILOT01,TR,01-701-1028,61,TARGET,R1-A1,,SUMDIAM,Sum of Diameter,43,mm,43,43,mm,,,CT SCAN,INDEPENDENT ASSESSOR,RADIOLOGIST 1,Y,3,BASELINE,2013-07-19,1
377,CDISCPILOT01,TR,01-701-1028,62,TARGET,R2-A1,,SUMDIAM,Sum of Diameter,45,mm,45,45,mm,,,CT SCAN,INDEPENDENT ASSESSOR,RADIOLOGIST 2,,3,BASELINE,2013-07-19,1
378,CDISCPILOT01,TR,01-701-1028,63,TARGET,A1,,SUMDIAM,Sum of Diameter,55,mm,55,55,mm,,,CT SCAN,INVESTIGATOR,,,3,BASELINE,2013-07-19,1
379,CDISCPILOT01,TR,01-701-1028,64,NON-TARGET,A2,NT01,TUMSTATE,Tumor State,,,,,,NOT DONE,NOT ASSESSABLE: Image obscured,CT SCAN,INVESTIGATOR,,,7,WEEK 6,2013-08-29,42
380,CDISCPILOT01,TR,01-701-1028,65,NON-TARGET,A2,NT02,TUMSTATE,Tumor State,,,,,,NOT DONE,NOT ASSESSABLE: Image obscured,CT SCAN,INVESTIGATOR,,,7,WEEK 6,2013-08-29,42
381,CDISCPILOT01,TR,01-701-1028,66,NON-TARGET,A2,NT03,TUMSTATE,Tumor State,ABSENT,,ABSENT,,,,,CT SCAN,INVESTIGATOR,,,7,WEEK 6,2013-08-29,42
382,CDISCPILOT01,TR,01-701-1028,67,NON-TARGET,A2,NT04,TUMSTATE,Tumor State,ABSENT,,ABSENT,,,,,CT SCAN,INVESTIGATOR,,,7,WEEK 6,2013-08-29,42
383,CDISCPILOT01,TR,01-701-1028,68,NON-TARGET,A2,NT05,TUMSTATE,Tumor State,,,,,,NOT DONE,NOT ASSESSABLE: Image obscured,CT SCAN,INVESTIGATOR,,,7,WEEK 6,2013-08-29,42
384,CDISCPILOT01,TR,01-701-1028,69,NON-TARGET,R1-A2,R1-NT01,TUMSTATE,Tumor State,PRESENT,,PRESENT,,,,,CT SCAN,INDEPENDENT ASSESSOR,RADIOLOGIST 1,Y,7,WEEK 6,2013-08-29,42
385,CDISCPILOT01,TR,01-701-1028,70,NON-TARGET,R1-A2,R1-NT02,TUMSTATE,Tumor State,UNEQUIVOCAL,,UNEQUIVOCAL,,,,,CT SCAN,INDEPENDENT ASSESSOR,RADIOLOGIST 1,Y,7,WEEK 6,2013-08-29,42
386,CDISCPILOT01,TR,01-701-1028,71,NON-TARGET,R1-A2,R1-NT03,TUMSTATE,Tumor State,PRESENT,,PRESENT,,,,,CT SCAN,INDEPENDENT ASSESSOR,RADIOLOGIST 1,Y,7,WEEK 6,2013-08-29,42
387,CDISCPILOT01,TR,01-701-1028,72,NON-TARGET,R1-A2,R1-NT04,TUMSTATE,Tumor State,PRESENT,,PRESENT,,,,,CT SCAN,INDEPENDENT ASSESSOR,RADIOLOGIST 1,Y,7,WEEK 6,2013-08-29,42
388,CDISCPILOT01,TR,01-701-1028,73,NON-TARGET,R1-A2,R1-NT05,TUMSTATE,Tumor State,PRESENT,,PRESENT,,,,,CT SCAN,INDEPENDENT ASSESSOR,RADIOLOGIST 1,Y,7,WEEK 6,2013-08-29,42
389,CDISCPILOT01,TR,01-701-1028,74,NON-TARGET,R2-A2,R2-NT01,TUMSTATE,Tumor State,ABSENT,,ABSENT,,,,,CT SCAN,INDEPENDENT ASSESSOR,RADIOLOGIST 2,,7,WEEK 6,2013-08-29,42
390,CDISCPILOT01,TR,01-701-1028,75,NON-TARGET,R2-A2,R2-NT02,TUMSTATE,Tumor State,ABSENT,,ABSENT,,,,,CT SCAN,INDEPENDENT ASSESSOR,RADIOLOGIST 2,,7,WEEK 6,2013-08-29,42
391,CDISCPILOT01,TR,01-701-1028,76,NON-TARGET,R2-A2,R2-NT03,TUMSTATE,Tumor State,PRESENT,,PRESENT,,,,,CT SCAN,INDEPENDENT ASSESSOR,RADIOLOGIST 2,,7,WEEK 6,2013-08-29,42
392,CDISCPILOT01,TR,01-701-1028,77,NON-TARGET,R2-A2,R2-NT04,TUMSTATE,Tumor State,ABSENT,,ABSENT,,,,,CT SCAN,INDEPENDENT ASSESSOR,RADIOLOGIST 2,,7,WEEK 6,2013-08-29,42
393,CDISCPILOT01,TR,01-701-1028,78,NON-TARGET,R2-A2,R2-NT05,TUMSTATE,Tumor State,ABSENT,,ABSENT,,,,,CT SCAN,INDEPENDENT ASSESSOR,RADIOLOGIST 2,,7,WEEK 6,2013-08-29,42
394,CDISCPILOT01,TR,01-701-1028,79,TARGET,R1-A2,R1-T01,DIAMETER,Diameter,16,mm,16,16,mm,,,CT SCAN,INDEPENDENT ASSESSOR,RADIOLOGIST 1,Y,7,WEEK 6,2013-08-29,42
395,CDISCPILOT01,TR,01-701-1028,80,TARGET,R1-A2,R1-T01,LDIAM,Longest Diameter,16,mm,16,16,mm,,,CT SCAN,INDEPENDENT ASSESSOR,RADIOLOGIST 1,Y,7,WEEK 6,2013-08-29,42
396,CDISCPILOT01,TR,01-701-1028,81,TARGET,R1-A2,R1-T01,LPERP,Longest Perpendicular,14.4,mm,14.4,14.4,mm,,,CT SCAN,INDEPENDENT ASSESSOR,RADIOLOGIST 1,Y,7,WEEK 6,2013-08-29,42
397,CDISCPILOT01,TR,01-701-1028,82,TARGET,R1-A2,R1-T02,DIAMETER,Diameter,19,mm,19,19,mm,,,CT SCAN,INDEPENDENT ASSESSOR,RADIOLOGIST 1,Y,7,WEEK 6,2013-08-29,42
398,CDISCPILOT01,TR,01-701-1028,83,TARGET,R1-A2,R1-T02,LDIAM,Longest Diameter,19,mm,19,19,mm,,,CT SCAN,INDEPENDENT ASSESSOR,RADIOLOGIST 1,Y,7,WEEK 6,2013-08-29,42
399,CDISCPILOT01,TR,01-701-1028,84,TARGET,R1-A2,R1-T02,LPERP,Longest Perpendicular,17.1,mm,17.1,17.1,mm,,,CT SCAN,INDEPENDENT ASSESSOR,RADIOLOGIST 1,Y,7,WEEK 6,2013-08-29,42
400,CDISCPILOT01,TR,01-701-1028,85,TARGET,R1-A2,R1-T03,DIAMETER,Diameter,19,mm,19,19,mm,,,CT SCAN,INDEPENDENT ASSESSOR,RADIOLOGIST 1,Y,7,WEEK 6,2013-08-29,42
401,CDISCPILOT01,TR,01-701-1028,86,TARGET,R1-A2,R1-T03,LDIAM,Longest Diameter,20.9,mm,20.9,20.900000000000002,mm,,,CT SCAN,INDEPENDENT ASSESSOR,RADIOLOGIST 1,Y,7,WEEK 6,2013-08-29,42
402,CDISCPILOT01,TR,01-701-1028,87,TARGET,R1-A2,R1-T03,LPERP,Longest Perpendicular,19,mm,19,19,mm,,,CT SCAN,INDEPENDENT ASSESSOR,RADIOLOGIST 1,Y,7,WEEK 6,2013-08-29,42
403,CDISCPILOT01,TR,01-701-1028,88,TARGET,R1-A2,R1-T04,DIAMETER,Diameter,19,mm,19,19,mm,,,CT SCAN,INDEPENDENT ASSESSOR,RADIOLOGIST 1,Y,7,WEEK 6,2013-08-29,42
404,CDISCPILOT01,TR,01-701-1028,89,TARGET,R1-A2,R1-T04,LDIAM,Longest Diameter,19,mm,19,19,mm,,,CT SCAN,INDEPENDENT ASSESSOR,RADIOLOGIST 1,Y,7,WEEK 6,2013-08-29,42
405,CDISCPILOT01,TR,01-701-1028,90,TARGET,R1-A2,R1-T04,LPERP,Longest Perpendicular,17.1,mm,17.1,17.1,mm,,,CT SCAN,INDEPENDENT ASSESSOR,RADIOLOGIST 1,Y,7,WEEK 6,2013-08-29,42
406,CDISCPILOT01,TR,01-701-1028,91,TARGET,R1-A2,R1-T05,DIAMETER,Diameter,11,mm,11,11,mm,,,CT SCAN,INDEPENDENT ASSESSOR,RADIOLOGIST 1,Y,7,WEEK 6,2013-08-29,42
407,CDISCPILOT01,TR,01-701-1028,92,TARGET,R1-A2,R1-T05,LDIAM,Longest Diameter,11,mm,11,11,mm,,,CT SCAN,INDEPENDENT ASSESSOR,RADIOLOGIST 1,Y,7,WEEK 6,2013-08-29,42
408,CDISCPILOT01,TR,01-701-1028,93,TARGET,R1-A2,R1-T05,LPERP,Longest Perpendicular,9.9,mm,9.9,9.9,mm,,,CT SCAN,INDEPENDENT ASSESSOR,RADIOLOGIST 1,Y,7,WEEK 6,2013-08-29,42
409,CDISCPILOT01,TR,01-701-1028,94,TARGET,R2-A2,R2-T01,DIAMETER,Diameter,12,mm,12,12,mm,,,CT SCAN,INDEPENDENT ASSESSOR,RADIOLOGIST 2,,7,WEEK 6,2013-08-29,42
410,CDISCPILOT01,TR,01-701-1028,95,TARGET,R2-A2,R2-T01,LDIAM,Longest Diameter,13.2,mm,13.2,13.200000000000001,mm,,,CT SCAN,INDEPENDENT ASSESSOR,RADIOLOGIST 2,,7,WEEK 6,2013-08-29,42
411,CDISCPILOT01,TR,01-701-1028,96,TARGET,R2-A2,R2-T01,LPERP,Longest Perpendicular,12,mm,12,12,mm,,,CT SCAN,INDEPENDENT ASSESSOR,RADIOLOGIST 2,,7,WEEK 6,2013-08-29,42
412,CDISCPILOT01,TR,01-701-1028,97,TARGET,R2-A2,R2-T02,DIAMETER,Diameter,11,mm,11,11,mm,,,CT SCAN,INDEPENDENT ASSESSOR,RADIOLOGIST 2,,7,WEEK 6,2013-08-29,42
413,CDISCPILOT01,TR,01-701-1028,98,TARGET,R2-A2,R2-T02,LDIAM,Longest Diameter,11,mm,11,11,mm,,,CT SCAN,INDEPENDENT ASSESSOR,RADIOLOGIST 2,,7,WEEK 6,2013-08-29,42
414,CDISCPILOT01,TR,01-701-1028,99,TARGET,R2-A2,R2-T02,LPERP,Longest Perpendicular,9.9,mm,9.9,9.9,mm,,,CT SCAN,INDEPENDENT ASSESSOR,RADIOLOGIST 2,,7,WEEK 6,2013-08-29,42
415,CDISCPILOT01,TR,01-701-1028,100,TARGET,R2-A2,R2-T03,DIAMETER,Diameter,15,mm,15,15,mm,,,CT SCAN,INDEPENDENT ASSESSOR,RADIOLOGIST 2,,7,WEEK 6,2013-08-29,42
416,CDISCPILOT01,TR,01-701-1028,101,TARGET,R2-A2,R2-T03,LDIAM,Longest Diameter,15,mm,15,15,mm,,,CT SCAN,INDEPENDENT ASSESSOR,RADIOLOGIST 2,,7,WEEK 6,2013-08-29,42
417,CDISCPILOT01,TR,01-701-1028,102,TARGET,R2-A2,R2-T03,LPERP,Longest Perpendicular,13.5,mm,13.5,13.5,mm,,,CT SCAN,INDEPENDENT ASSESSOR,RADIOLOGIST 2,,7,WEEK 6,2013-08-29,42
418,CDISCPILOT01,TR,01-701-1028,103,TARGET,R2-A2,R2-T04,DIAMETER,Diameter,12,mm,12,12,mm,,,CT SCAN,INDEPENDENT ASSESSOR,RADIOLOGIST 2,,7,WEEK 6,2013-08-29,42
419,CDISCPILOT01,TR,01-701-1028,104,TARGET,R2-A2,R2-T04,LDIAM,Longest Diameter,12,mm,12,12,mm,,,CT SCAN,INDEPENDENT ASSESSOR,RADIOLOGIST 2,,7,WEEK 6,2013-08-29,42
420,CDISCPILOT01,TR,01-701-1028,105,TARGET,R2-A2,R2-T04,LPERP,Longest Perpendicular,10.8,mm,10.8,10.8,mm,,,CT SCAN,INDEPENDENT ASSESSOR,RADIOLOGIST 2,,7,WEEK 6,2013-08-29,42
421,CDISCPILOT01,TR,01-701-1028,106,TARGET,R2-A2,R2-T05,DIAMETER,Diameter,13,mm,13,13,mm,,,CT SCAN,INDEPENDENT ASSESSOR,RADIOLOGIST 2,,7,WEEK 6,2013-08-29,42
422,CDISCPILOT01,TR,01-701-1028,107,TARGET,R2-A2,R2-T05,LDIAM,Longest Diameter,13,mm,13,13,mm,,,CT SCAN,INDEPENDENT ASSESSOR,RADIOLOGIST 2,,7,WEEK 6,2013-08-29,42
423,CDISCPILOT01,TR,01-701-1028,108,TARGET,R2-A2,R2-T05,LPERP,Longest Perpendicular,11.7,mm,11.7,11.700000000000001,mm,,,CT SCAN,INDEPENDENT ASSESSOR,RADIOLOGIST 2,,7,WEEK 6,2013-08-29,42
424,CDISCPILOT01,TR,01-701-1028,109,TARGET,A2,T01,DIAMETER,Diameter,19,mm,19,19,mm,,,CT SCAN,INVESTIGATOR,,,7,WEEK 6,2013-08-29,42
425,CDISCPILOT01,TR,01-701-1028,110,TARGET,A2,T01,LDIAM,Longest Diameter,19,mm,19,19,mm,,,CT SCAN,INVESTIGATOR,,,7,WEEK 6,2013-08-29,42
426,CDISCPILOT01,TR,01-701-1028,111,TARGET,A2,T01,LPERP,Longest Perpendicular,17.1,mm,17.1,17.1,mm,,,CT SCAN,INVESTIGATOR,,,7,WEEK 6,2013-08-29,42
427,CDISCPILOT01,TR,01-701-1028,112,TARGET,A2,T02,DIAMETER,Diameter,16,mm,16,16,mm,,,CT SCAN,INVESTIGATOR,,,7,WEEK 6,2013-08-29,42
428,CDISCPILOT01,TR,01-701-1028,113,TARGET,A2,T02,LDIAM,Longest Diameter,16,mm,16,16,mm,,,CT SCAN,INVESTIGATOR,,,7,WEEK 6,2013-08-29,42
429,CDISCPILOT01,TR,01-701-1028,114,TARGET,A2,T02,LPERP,Longest Perpendicular,14.4,mm,14.4,14.4,mm,,,CT SCAN,INVESTIGATOR,,,7,WEEK 6,2013-08-29,42
430,CDISCPILOT01,TR,01-701-1028,115,TARGET,A2,T03,DIAMETER,Diameter,12,mm,12,12,mm,,,CT SCAN,INVESTIGATOR,,,7,WEEK 6,2013-08-29,42
431,CDISCPILOT01,TR,01-701-1028,116,TARGET,A2,T03,LDIAM,Longest Diameter,12,mm,12,12,mm,,,CT SCAN,INVESTIGATOR,,,7,WEEK 6,2013-08-29,42
432,CDISCPILOT01,TR,01-701-1028,117,TARGET,A2,T03,LPERP,Longest Perpendicular,10.8,mm,10.8,10.8,mm,,,CT SCAN,INVESTIGATOR,,,7,WEEK 6,2013-08-29,42
433,CDISCPILOT01,TR,01-701-1028,118,TARGET,A2,T04,DIAMETER,Diameter,10,mm,10,10,mm,,,CT SCAN,INVESTIGATOR,,,7,WEEK 6,2013-08-29,42
434,CDISCPILOT01,TR,01-701-1028,119,TARGET,A2,T04,LDIAM,Longest Diameter,10,mm,10,10,mm,,,CT SCAN,INVESTIGATOR,,,7,WEEK 6,2013-08-29,42
435,CDISCPILOT01,TR,01-701-1028,120,TARGET,A2,T04,LPERP,Longest Perpendicular,9,mm,9,9,mm,,,CT SCAN,INVESTIGATOR,,,7,WEEK 6,2013-08-29,42
436,CDISCPILOT01,TR,01-701-1028,121,TARGET,A2,T05,DIAMETER,Diameter,16,mm,16,16,mm,,,CT SCAN,INVESTIGATOR,,,7,WEEK 6,2013-08-29,42
437,CDISCPILOT01,TR,01-701-1028,122,TARGET,A2,T05,LDIAM,Longest Diameter,16,mm,16,16,mm,,,CT SCAN,INVESTIGATOR,,,7,WEEK 6,2013-08-29,42
438,CDISCPILOT01,TR,01-701-1028,123,TARGET,A2,T05,LPERP,Longest Perpendicular,14.4,mm,14.4,14.4,mm,,,CT SCAN,INVESTIGATOR,,,7,WEEK 6,2013-08-29,42
439,CDISCPILOT01,TR,01-701-1028,124,TARGET,R1-A2,,SUMDIAM,Sum of Diameter,84,mm,84,84,mm,,,CT SCAN,INDEPENDENT ASSESSOR,RADIOLOGIST 1,Y,7,WEEK 6,2013-08-29,42
440,CDISCPILOT01,TR,01-701-1028,125,TARGET,R2-A2,,SUMDIAM,Sum of Diameter,63,mm,63,63,mm,,,CT SCAN,INDEPENDENT ASSESSOR,RADIOLOGIST 2,,7,WEEK 6,2013-08-29,42
441,CDISCPILOT01,TR,01-701-1028,126,TARGET,A2,,SUMDIAM,Sum of Diameter,73,mm,73,73,mm,,,CT SCAN,INVESTIGATOR,,,7,WEEK 6,2013-08-29,42
442,CDISCPILOT01,TR,01-701-1028,127,NON-TARGET,A3,NT01,TUMSTATE,Tumor State,ABSENT,,ABSENT,,,,,CT SCAN,INVESTIGATOR,,,9,WEEK 12,2013-10-09,84
443,CDISCPILOT01,TR,01-701-1028,128,NON-TARGET,A3,NT02,TUMSTATE,Tumor State,ABSENT,,ABSENT,,,,,CT SCAN,INVESTIGATOR,,,9,WEEK 12,2013-10-09,84
444,CDISCPILOT01,TR,01-701-1028,129,NON-TARGET,A3,NT03,TUMSTATE,Tumor State,PRESENT,,PRESENT,,,,,CT SCAN,INVESTIGATOR,,,9,WEEK 12,2013-10-09,84
445,CDISCPILOT01,TR,01-701-1028,130,NON-TARGET,A3,NT04,TUMSTATE,Tumor State,PRESENT,,PRESENT,,,,,CT SCAN,INVESTIGATOR,,,9,WEEK 12,2013-10-09,84
446,CDISCPILOT01,TR,01-701-1028,131,NON-TARGET,A3,NT05,TUMSTATE,Tumor State,ABSENT,,ABSENT,,,,,CT SCAN,INVESTIGATOR,,,9,WEEK 12,2013-10-09,84
447,CDISCPILOT01,TR,01-701-1028,132,NON-TARGET,R1-A3,R1-NT01,TUMSTATE,Tumor State,PRESENT,,PRESENT,,,,,CT SCAN,INDEPENDENT ASSESSOR,RADIOLOGIST 1,Y,9,WEEK 12,2013-10-09,84
448,CDISCPILOT01,TR,01-701-1028,133,NON-TARGET,R1-A3,R1-NT02,TUMSTATE,Tumor State,ABSENT,,ABSENT,,,,,CT SCAN,INDEPENDENT ASSESSOR,RADIOLOGIST 1,Y,9,WEEK 12,2013-10-09,84
449,CDISCPILOT01,TR,01-701-1028,134,NON-TARGET,R1-A3,R1-NT03,TUMSTATE,Tumor State,PRESENT,,PRESENT,,,,,CT SCAN,INDEPENDENT ASSESSOR,RADIOLOGIST 1,Y,9,WEEK 12,2013-10-09,84
450,CDISCPILOT01,TR,01-701-1028,135,NON-TARGET,R1-A3,R1-NT04,TUMSTATE,Tumor State,PRESENT,,PRESENT,,,,,CT SCAN,INDEPENDENT ASSESSOR,RADIOLOGIST 1,Y,9,WEEK 12,2013-10-09,84
451,CDISCPILOT01,TR,01-701-1028,136,NON-TARGET,R1-A3,R1-NT05,TUMSTATE,Tumor State,PRESENT,,PRESENT,,,,,CT SCAN,INDEPENDENT ASSESSOR,RADIOLOGIST 1,Y,9,WEEK 12,2013-10-09,84
452,CDISCPILOT01,TR,01-701-1028,137,NON-TARGET,R2-A3,R2-NT01,TUMSTATE,Tumor State,PRESENT,,PRESENT,,,,,CT SCAN,INDEPENDENT ASSESSOR,RADIOLOGIST 2,,9,WEEK 12,2013-10-09,84
453,CDISCPILOT01,TR,01-701-1028,138,NON-TARGET,R2-A3,R2-NT02,TUMSTATE,Tumor State,UNEQUIVOCAL,,UNEQUIVOCAL,,,,,CT SCAN,INDEPENDENT ASSESSOR,RADIOLOGIST 2,,9,WEEK 12,2013-10-09,84
454,CDISCPILOT01,TR,01-701-1028,139,NON-TARGET,R2-A3,R2-NT03,TUMSTATE,Tumor State,PRESENT,,PRESENT,,,,,CT SCAN,INDEPENDENT ASSESSOR,RADIOLOGIST 2,,9,WEEK 12,2013-10-09,84
455,CDISCPILOT01,TR,01-701-1028,140,NON-TARGET,R2-A3,R2-NT04,TUMSTATE,Tumor State,UNEQUIVOCAL,,UNEQUIVOCAL,,,,,CT SCAN,INDEPENDENT ASSESSOR,RADIOLOGIST 2,,9,WEEK 12,2013-10-09,84
456,CDISCPILOT01,TR,01-701-1028,141,NON-TARGET,R2-A3,R2-NT05,TUMSTATE,Tumor State,ABSENT,,ABSENT,,,,,CT SCAN,INDEPENDENT ASSESSOR,RADIOLOGIST 2,,9,WEEK 12,2013-10-09,84
457,CDISCPILOT01,TR,01-701-1028,142,TARGET,R1-A3,R1-T01,DIAMETER,Diameter,16,mm,16,16,mm,,,CT SCAN,INDEPENDENT ASSESSOR,RADIOLOGIST 1,Y,9,WEEK 12,2013-10-09,84
458,CDISCPILOT01,TR,01-701-1028,143,TARGET,R1-A3,R1-T01,LDIAM,Longest Diameter,16,mm,16,16,mm,,,CT SCAN,INDEPENDENT ASSESSOR,RADIOLOGIST 1,Y,9,WEEK 12,2013-10-09,84
459,CDISCPILOT01,TR,01-701-1028,144,TARGET,R1-A3,R1-T01,LPERP,Longest Perpendicular,14.4,mm,14.4,14.4,mm,,,CT SCAN,INDEPENDENT ASSESSOR,RADIOLOGIST 1,Y,9,WEEK 12,2013-10-09,84
460,CDISCPILOT01,TR,01-701-1028,145,TARGET,R1-A3,R1-T02,DIAMETER,Diameter,19,mm,19,19,mm,,,CT SCAN,INDEPENDENT ASSESSOR,RADIOLOGIST 1,Y,9,WEEK 12,2013-10-09,84
461,CDISCPILOT01,TR,01-701-1028,146,TARGET,R1-A3,R1-T02,LDIAM,Longest Diameter,19,mm,19,19,mm,,,CT SCAN,INDEPENDENT ASSESSOR,RADIOLOGIST 1,Y,9,WEEK 12,2013-10-09,84
462,CDISCPILOT01,TR,01-701-1028,147,TARGET,R1-A3,R1-T02,LPERP,Longest Perpendicular,17.1,mm,17.1,17.1,mm,,,CT SCAN,INDEPENDENT ASSESSOR,RADIOLOGIST 1,Y,9,WEEK 12,2013-10-09,84
463,CDISCPILOT01,TR,01-701-1028,148,TARGET,R1-A3,R1-T03,DIAMETER,Diameter,19,mm,19,19,mm,,,CT SCAN,INDEPENDENT ASSESSOR,RADIOLOGIST 1,Y,9,WEEK 12,2013-10-09,84
464,CDISCPILOT01,TR,01-701-1028,149,TARGET,R1-A3,R1-T03,LDIAM,Longest Diameter,20.9,mm,20.9,20.900000000000002,mm,,,CT SCAN,INDEPENDENT ASSESSOR,RADIOLOGIST 1,Y,9,WEEK 12,2013-10-09,84
465,CDISCPILOT01,TR,01-701-1028,150,TARGET,R1-A3,R1-T03,LPERP,Longest Perpendicular,19,mm,19,19,mm,,,CT SCAN,INDEPENDENT ASSESSOR,RADIOLOGIST 1,Y,9,WEEK 12,2013-10-09,84
466,CDISCPILOT01,TR,01-701-1028,151,TARGET,R1-A3,R1-T04,DIAMETER,Diameter,13,mm,13,13,mm,,,CT SCAN,INDEPENDENT ASSESSOR,RADIOLOGIST 1,Y,9,WEEK 12,2013-10-09,84
467,CDISCPILOT01,TR,01-701-1028,152,TARGET,R1-A3,R1-T04,LDIAM,Longest Diameter,13,mm,13,13,mm,,,CT SCAN,INDEPENDENT ASSESSOR,RADIOLOGIST 1,Y,9,WEEK 12,2013-10-09,84
468,CDISCPILOT01,TR,01-701-1028,153,TARGET,R1-A3,R1-T04,LPERP,Longest Perpendicular,11.7,mm,11.7,11.700000000000001,mm,,,CT SCAN,INDEPENDENT ASSESSOR,RADIOLOGIST 1,Y,9,WEEK 12,2013-10-09,84
469,CDISCPILOT01,TR,01-701-1028,154,TARGET,R1-A3,R1-T05,DIAMETER,Diameter,17,mm,17,17,mm,,,CT SCAN,INDEPENDENT ASSESSOR,RADIOLOGIST 1,Y,9,WEEK 12,2013-10-09,84
470,CDISCPILOT01,TR,01-701-1028,155,TARGET,R1-A3,R1-T05,LDIAM,Longest Diameter,17,mm,17,17,mm,,,CT SCAN,INDEPENDENT ASSESSOR,RADIOLOGIST 1,Y,9,WEEK 12,2013-10-09,84
471,CDISCPILOT01,TR,01-701-1028,156,TARGET,R1-A3,R1-T05,LPERP,Longest Perpendicular,15.3,mm,15.3,15.3,mm,,,CT SCAN,INDEPENDENT ASSESSOR,RADIOLOGIST 1,Y,9,WEEK 12,2013-10-09,84
472,CDISCPILOT01,TR,01-701-1028,157,TARGET,R2-A3,R2-T01,DIAMETER,Diameter,17,mm,17,17,mm,,,CT SCAN,INDEPENDENT ASSESSOR,RADIOLOGIST 2,,9,WEEK 12,2013-10-09,84
473,CDISCPILOT01,TR,01-701-1028,158,TARGET,R2-A3,R2-T01,LDIAM,Longest Diameter,17,mm,17,17,mm,,,CT SCAN,INDEPENDENT ASSESSOR,RADIOLOGIST 2,,9,WEEK 12,2013-10-09,84
474,CDISCPILOT01,TR,01-701-1028,159,TARGET,R2-A3,R2-T01,LPERP,Longest Perpendicular,15.3,mm,15.3,15.3,mm,,,CT SCAN,INDEPENDENT ASSESSOR,RADIOLOGIST 2,,9,WEEK 12,2013-10-09,84
475,CDISCPILOT01,TR,01-701-1028,160,TARGET,R2-A3,R2-T02,DIAMETER,Diameter,12,mm,12,12,mm,,,CT SCAN,INDEPENDENT ASSESSOR,RADIOLOGIST 2,,9,WEEK 12,2013-10-09,84
476,CDISCPILOT01,TR,01-701-1028,161,TARGET,R2-A3,R2-T02,LDIAM,Longest Diameter,12,mm,12,12,mm,,,CT SCAN,INDEPENDENT ASSESSOR,RADIOLOGIST 2,,9,WEEK 12,2013-10-09,84
477,CDISCPILOT01,TR,01-701-1028,162,TARGET,R2-A3,R2-T02,LPERP,Longest Perpendicular,10.8,mm,10.8,10.8,mm,,,CT SCAN,INDEPENDENT ASSESSOR,RADIOLOGIST 2,,9,WEEK 12,2013-10-09,84
478,CDISCPILOT01,TR,01-701-1028,163,TARGET,R2-A3,R2-T03,DIAMETER,Diameter,15,mm,15,15,mm,,,CT SCAN,INDEPENDENT ASSESSOR,RADIOLOGIST 2,,9,WEEK 12,2013-10-09,84
479,CDISCPILOT01,TR,01-701-1028,164,TARGET,R2-A3,R2-T03,LDIAM,Longest Diameter,16.5,mm,16.5,16.5,mm,,,CT SCAN,INDEPENDENT ASSESSOR,RADIOLOGIST 2,,9,WEEK 12,2013-10-09,84
480,CDISCPILOT01,TR,01-701-1028,165,TARGET,R2-A3,R2-T03,LPERP,Longest Perpendicular,15,mm,15,15,mm,,,CT SCAN,INDEPENDENT ASSESSOR,RADIOLOGIST 2,,9,WEEK 12,2013-10-09,84
481,CDISCPILOT01,TR,01-701-1028,166,TARGET,R2-A3,R2-T04,DIAMETER,Diameter,18,mm,18,18,mm,,,CT SCAN,INDEPENDENT ASSESSOR,RADIOLOGIST 2,,9,WEEK 12,2013-10-09,84
482,CDISCPILOT01,TR,01-701-1028,167,TARGET,R2-A3,R2-T04,LDIAM,Longest Diameter,18,mm,18,18,mm,,,CT SCAN,INDEPENDENT ASSESSOR,RADIOLOGIST 2,,9,WEEK 12,2013-10-09,84
483,CDISCPILOT01,TR,01-701-1028,168,TARGET,R2-A3,R2-T04,LPERP,Longest Perpendicular,16.2,mm,16.2,16.2,mm,,,CT SCAN,INDEPENDENT ASSESSOR,RADIOLOGIST 2,,9,WEEK 12,2013-10-09,84
484,CDISCPILOT01,TR,01-701-1028,169,TARGET,R2-A3,R2-T05,DIAMETER,Diameter,15,mm,15,15,mm,,,CT SCAN,INDEPENDENT ASSESSOR,RADIOLOGIST 2,,9,WEEK 12,2013-10-09,84
485,CDISCPILOT01,TR,01-701-1028,170,TARGET,R2-A3,R2-T05,LDIAM,Longest Diameter,15,mm,15,15,mm,,,CT SCAN,INDEPENDENT ASSESSOR,RADIOLOGIST 2,,9,WEEK 12,2013-10-09,84
486,CDISCPILOT01,TR,01-701-1028,171,TARGET,R2-A3,R2-T05,LPERP,Longest Perpendicular,13.5,mm,13.5,13.5,mm,,,CT SCAN,INDEPENDENT ASSESSOR,RADIOLOGIST 2,,9,WEEK 12,2013-10-09,84
487,CDISCPILOT01,TR,01-701-1028,172,TARGET,A3,T01,DIAMETER,Diameter,13,mm,13,13,mm,,,CT SCAN,INVESTIGATOR,,,9,WEEK 12,2013-10-09,84
488,CDISCPILOT01,TR,01-701-1028,173,TARGET,A3,T01,LDIAM,Longest Diameter,14.3,mm,14.3,14.3,mm,,,CT SCAN,INVESTIGATOR,,,9,WEEK 12,2013-10-09,84
489,CDISCPILOT01,TR,01-701-1028,174,TARGET,A3,T01,LPERP,Longest Perpendicular,13,mm,13,13,mm,,,CT SCAN,INVESTIGATOR,,,9,WEEK 12,2013-10-09,84
490,CDISCPILOT01,TR,01-701-1028,175,TARGET,A3,T02,DIAMETER,Diameter,18,mm,18,18,mm,,,CT SCAN,INVESTIGATOR,,,9,WEEK 12,2013-10-09,84
491,CDISCPILOT01,TR,01-701-1028,176,TARGET,A3,T02,LDIAM,Longest Diameter,18,mm,18,18,mm,,,CT SCAN,INVESTIGATOR,,,9,WEEK 12,2013-10-09,84
492,CDISCPILOT01,TR,01-701-1028,177,TARGET,A3,T02,LPERP,Longest Perpendicular,16.2,mm,16.2,16.2,mm,,,CT SCAN,INVESTIGATOR,,,9,WEEK 12,2013-10-09,84
493,CDISCPILOT01,TR,01-701-1028,178,TARGET,A3,T03,DIAMETER,Diameter,16,mm,16,16,mm,,,CT SCAN,INVESTIGATOR,,,9,WEEK 12,2013-10-09,84
494,CDISCPILOT01,TR,01-701-1028,179,TARGET,A3,T03,LDIAM,Longest Diameter,16,mm,16,16,mm,,,CT SCAN,INVESTIGATOR,,,9,WEEK 12,2013-10-09,84
495,CDISCPILOT01,TR,01-701-1028,180,TARGET,A3,T03,LPERP,Longest Perpendicular,14.4,mm,14.4,14.4,mm,,,CT SCAN,INVESTIGATOR,,,9,WEEK 12,2013-10-09,84
496,CDISCPILOT01,TR,01-701-1028,181,TARGET,A3,T04,DIAMETER,Diameter,10,mm,10,10,mm,,,CT SCAN,INVESTIGATOR,,,9,WEEK 12,2013-10-09,84
497,CDISCPILOT01,TR,01-701-1028,182,TARGET,A3,T04,LDIAM,Longest Diameter,10,mm,10,10,mm,,,CT SCAN,INVESTIGATOR,,,9,WEEK 12,2013-10-09,84
498,CDISCPILOT01,TR,01-701-1028,183,TARGET,A3,T04,LPERP,Longest Perpendicular,9,mm,9,9,mm,,,CT SCAN,INVESTIGATOR,,,9,WEEK 12,2013-10-09,84
499,CDISCPILOT01,TR,01-701-1028,184,TARGET,A3,T05,DIAMETER,Diameter,10,mm,10,10,mm,,,CT SCAN,INVESTIGATOR,,,9,WEEK 12,2013-10-09,84
500,CDISCPILOT01,TR,01-701-1028,185,TARGET,A3,T05,LDIAM,Longest Diameter,10,mm,10,10,mm,,,CT SCAN,INVESTIGATOR,,,9,WEEK 12,2013-10-09,84
501,CDISCPILOT01,TR,01-701-1028,186,TARGET,A3,T05,LPERP,Longest Perpendicular,9,mm,9,9,mm,,,CT SCAN,INVESTIGATOR,,,9,WEEK 12,2013-10-09,84
502,CDISCPILOT01,TR,01-701-1028,187,TARGET,R1-A3,,SUMDIAM,Sum of Diameter,84,mm,84,84,mm,,,CT SCAN,INDEPENDENT ASSESSOR,RADIOLOGIST 1,Y,9,WEEK 12,2013-10-09,84
503,CDISCPILOT01,TR,01-701-1028,188,TARGET,R2-A3,,SUMDIAM,Sum of Diameter,77,mm,77,77,mm,,,CT SCAN,INDEPENDENT ASSESSOR,RADIOLOGIST 2,,9,WEEK 12,2013-10-09,84
504,CDISCPILOT01,TR,01-701-1028,189,TARGET,A3,,SUMDIAM,Sum of Diameter,67,mm,67,67,mm,,,CT SCAN,INVESTIGATOR,,,9,WEEK 12,2013-10-09,84
505,CDISCPILOT01,TR,01-701-1028,190,NON-TARGET,,NT01,TUMSTATE,Tumor State,PRESENT,,PRESENT,,,,,CT SCAN,INVESTIGATOR,,,10.1,WEEK 18 (T),2013-11-20,126
506,CDISCPILOT01,TR,01-701-1028,191,NON-TARGET,,NT02,TUMSTATE,Tumor State,ABSENT,,ABSENT,,,,,CT SCAN,INVESTIGATOR,,,10.1,WEEK 18 (T),2013-11-20,126
507,CDISCPILOT01,TR,01-701-1028,192,NON-TARGET,,NT03,TUMSTATE,Tumor State,ABSENT,,ABSENT,,,,,CT SCAN,INVESTIGATOR,,,10.1,WEEK 18 (T),2013-11-20,126
508,CDISCPILOT01,TR,01-701-1028,193,NON-TARGET,,NT04,TUMSTATE,Tumor State,ABSENT,,ABSENT,,,,,CT SCAN,INVESTIGATOR,,,10.1,WEEK 18 (T),2013-11-20,126
509,CDISCPILOT01,TR,01-701-1028,194,NON-TARGET,,NT05,TUMSTATE,Tumor State,PRESENT,,PRESENT,,,,,CT SCAN,INVESTIGATOR,,,10.1,WEEK 18 (T),2013-11-20,126
510,CDISCPILOT01,TR,01-701-1028,195,NON-TARGET,R1-NA,R1-NT01,TUMSTATE,Tumor State,ABSENT,,ABSENT,,,,,CT SCAN,INDEPENDENT ASSESSOR,RADIOLOGIST 1,Y,10.1,WEEK 18 (T),2013-11-20,126
511,CDISCPILOT01,TR,01-701-1028,196,NON-TARGET,R1-NA,R1-NT02,TUMSTATE,Tumor State,PRESENT,,PRESENT,,,,,CT SCAN,INDEPENDENT ASSESSOR,RADIOLOGIST 1,Y,10.1,WEEK 18 (T),2013-11-20,126
512,CDISCPILOT01,TR,01-701-1028,197,NON-TARGET,R1-NA,R1-NT03,TUMSTATE,Tumor State,ABSENT,,ABSENT,,,,,CT SCAN,INDEPENDENT ASSESSOR,RADIOLOGIST 1,Y,10.1,WEEK 18 (T),2013-11-20,126
513,CDISCPILOT01,TR,01-701-1028,198,NON-TARGET,R1-NA,R1-NT04,TUMSTATE,Tumor State,ABSENT,,ABSENT,,,,,CT SCAN,INDEPENDENT ASSESSOR,RADIOLOGIST 1,Y,10.1,WEEK 18 (T),2013-11-20,126
514,CDISCPILOT01,TR,01-701-1028,199,NON-TARGET,R1-NA,R1-NT05,TUMSTATE,Tumor State,ABSENT,,ABSENT,,,,,CT SCAN,INDEPENDENT ASSESSOR,RADIOLOGIST 1,Y,10.1,WEEK 18 (T),2013-11-20,126
515,CDISCPILOT01,TR,01-701-1028,200,NON-TARGET,R2-NA,R2-NT01,TUMSTATE,Tumor State,PRESENT,,PRESENT,,,,,CT SCAN,INDEPENDENT ASSESSOR,RADIOLOGIST 2,,10.1,WEEK 18 (T),2013-11-20,126
516,CDISCPILOT01,TR,01-701-1028,201,NON-TARGET,R2-NA,R2-NT02,TUMSTATE,Tumor State,,,,,,NOT DONE,NOT ASSESSABLE: Image obscured,CT SCAN,INDEPENDENT ASSESSOR,RADIOLOGIST 2,,10.1,WEEK 18 (T),2013-11-20,126
517,CDISCPILOT01,TR,01-701-1028,202,NON-TARGET,R2-NA,R2-NT03,TUMSTATE,Tumor State,ABSENT,,ABSENT,,,,,CT SCAN,INDEPENDENT ASSESSOR,RADIOLOGIST 2,,10.1,WEEK 18 (T),2013-11-20,126
518,CDISCPILOT01,TR,01-701-1028,203,NON-TARGET,R2-NA,R2-NT04,TUMSTATE,Tumor State,UNEQUIVOCAL,,UNEQUIVOCAL,,,,,CT SCAN,INDEPENDENT ASSESSOR,RADIOLOGIST 2,,10.1,WEEK 18 (T),2013-11-20,126
519,CDISCPILOT01,TR,01-701-1028,204,NON-TARGET,R2-NA,R2-NT05,TUMSTATE,Tumor State,ABSENT,,ABSENT,,,,,CT SCAN,INDEPENDENT ASSESSOR,RADIOLOGIST 2,,10.1,WEEK 18 (T),2013-11-20,126
520,CDISCPILOT01,TR,01-701-1028,205,TARGET,R1-NA,R1-T01,DIAMETER,Diameter,16,mm,16,16,mm,,,CT SCAN,INDEPENDENT ASSESSOR,RADIOLOGIST 1,Y,10.1,WEEK 18 (T),2013-11-20,126
521,CDISCPILOT01,TR,01-701-1028,206,TARGET,R1-NA,R1-T01,LDIAM,Longest Diameter,16,mm,16,16,mm,,,CT SCAN,INDEPENDENT ASSESSOR,RADIOLOGIST 1,Y,10.1,WEEK 18 (T),2013-11-20,126
522,CDISCPILOT01,TR,01-701-1028,207,TARGET,R1-NA,R1-T01,LPERP,Longest Perpendicular,14.4,mm,14.4,14.4,mm,,,CT SCAN,INDEPENDENT ASSESSOR,RADIOLOGIST 1,Y,10.1,WEEK 18 (T),2013-11-20,126
523,CDISCPILOT01,TR,01-701-1028,208,TARGET,R1-NA,R1-T02,DIAMETER,Diameter,14,mm,14,14,mm,,,CT SCAN,INDEPENDENT ASSESSOR,RADIOLOGIST 1,Y,10.1,WEEK 18 (T),2013-11-20,126
524,CDISCPILOT01,TR,01-701-1028,209,TARGET,R1-NA,R1-T02,LDIAM,Longest Diameter,15.4,mm,15.4,15.400000000000002,mm,,,CT SCAN,INDEPENDENT ASSESSOR,RADIOLOGIST 1,Y,10.1,WEEK 18 (T),2013-11-20,126
525,CDISCPILOT01,TR,01-701-1028,210,TARGET,R1-NA,R1-T02,LPERP,Longest Perpendicular,14,mm,14,14,mm,,,CT SCAN,INDEPENDENT ASSESSOR,RADIOLOGIST 1,Y,10.1,WEEK 18 (T),2013-11-20,126
526,CDISCPILOT01,TR,01-701-1028,211,TARGET,R1-NA,R1-T03,DIAMETER,Diameter,19,mm,19,19,mm,,,CT SCAN,INDEPENDENT ASSESSOR,RADIOLOGIST 1,Y,10.1,WEEK 18 (T),2013-11-20,126
527,CDISCPILOT01,TR,01-701-1028,212,TARGET,R1-NA,R1-T03,LDIAM,Longest Diameter,19,mm,19,19,mm,,,CT SCAN,INDEPENDENT ASSESSOR,RADIOLOGIST 1,Y,10.1,WEEK 18 (T),2013-11-20,126
528,CDISCPILOT01,TR,01-701-1028,213,TARGET,R1-NA,R1-T03,LPERP,Longest Perpendicular,17.1,mm,17.1,17.1,mm,,,CT SCAN,INDEPENDENT ASSESSOR,RADIOLOGIST 1,Y,10.1,WEEK 18 (T),2013-11-20,126
529,CDISCPILOT01,TR,01-701-1028,214,TARGET,R1-NA,R1-T04,DIAMETER,Diameter,10,mm,10,10,mm,,,CT SCAN,INDEPENDENT ASSESSOR,RADIOLOGIST 1,Y,10.1,WEEK 18 (T),2013-11-20,126
530,CDISCPILOT01,TR,01-701-1028,215,TARGET,R1-NA,R1-T04,LDIAM,Longest Diameter,10,mm,10,10,mm,,,CT SCAN,INDEPENDENT ASSESSOR,RADIOLOGIST 1,Y,10.1,WEEK 18 (T),2013-11-20,126
531,CDISCPILOT01,TR,01-701-1028,216,TARGET,R1-NA,R1-T04,LPERP,Longest Perpendicular,9,mm,9,9,mm,,,CT SCAN,INDEPENDENT ASSESSOR,RADIOLOGIST 1,Y,10.1,WEEK 18 (T),2013-11-20,126
532,CDISCPILOT01,TR,01-701-1028,217,TARGET,R1-NA,R1-T05,DIAMETER,Diameter,17,mm,17,17,mm,,,CT SCAN,INDEPENDENT ASSESSOR,RADIOLOGIST 1,Y,10.1,WEEK 18 (T),2013-11-20,126
533,CDISCPILOT01,TR,01-701-1028,218,TARGET,R1-NA,R1-T05,LDIAM,Longest Diameter,17,mm,17,17,mm,,,CT SCAN,INDEPENDENT ASSESSOR,RADIOLOGIST 1,Y,10.1,WEEK 18 (T),2013-11-20,126
534,CDISCPILOT01,TR,01-701-1028,219,TARGET,R1-NA,R1-T05,LPERP,Longest Perpendicular,15.3,mm,15.3,15.3,mm,,,CT SCAN,INDEPENDENT ASSESSOR,RADIOLOGIST 1,Y,10.1,WEEK 18 (T),2013-11-20,126
535,CDISCPILOT01,TR,01-701-1028,220,TARGET,R2-NA,R2-T01,DIAMETER,Diameter,10,mm,10,10,mm,,,CT SCAN,INDEPENDENT ASSESSOR,RADIOLOGIST 2,,10.1,WEEK 18 (T),2013-11-20,126
536,CDISCPILOT01,TR,01-701-1028,221,TARGET,R2-NA,R2-T01,LDIAM,Longest Diameter,10,mm,10,10,mm,,,CT SCAN,INDEPENDENT ASSESSOR,RADIOLOGIST 2,,10.1,WEEK 18 (T),2013-11-20,126
537,CDISCPILOT01,TR,01-701-1028,222,TARGET,R2-NA,R2-T01,LPERP,Longest Perpendicular,9,mm,9,9,mm,,,CT SCAN,INDEPENDENT ASSESSOR,RADIOLOGIST 2,,10.1,WEEK 18 (T),2013-11-20,126
538,CDISCPILOT01,TR,01-701-1028,223,TARGET,R2-NA,R2-T02,DIAMETER,Diameter,15,mm,15,15,mm,,,CT SCAN,INDEPENDENT ASSESSOR,RADIOLOGIST 2,,10.1,WEEK 18 (T),2013-11-20,126
539,CDISCPILOT01,TR,01-701-1028,224,TARGET,R2-NA,R2-T02,LDIAM,Longest Diameter,16.5,mm,16.5,16.5,mm,,,CT SCAN,INDEPENDENT ASSESSOR,RADIOLOGIST 2,,10.1,WEEK 18 (T),2013-11-20,126
540,CDISCPILOT01,TR,01-701-1028,225,TARGET,R2-NA,R2-T02,LPERP,Longest Perpendicular,15,mm,15,15,mm,,,CT SCAN,INDEPENDENT ASSESSOR,RADIOLOGIST 2,,10.1,WEEK 18 (T),2013-11-20,126
541,CDISCPILOT01,TR,01-701-1028,226,TARGET,R2-NA,R2-T03,DIAMETER,Diameter,11,mm,11,11,mm,,,CT SCAN,INDEPENDENT ASSESSOR,RADIOLOGIST 2,,10.1,WEEK 18 (T),2013-11-20,126
542,CDISCPILOT01,TR,01-701-1028,227,TARGET,R2-NA,R2-T03,LDIAM,Longest Diameter,11,mm,11,11,mm,,,CT SCAN,INDEPENDENT ASSESSOR,RADIOLOGIST 2,,10.1,WEEK 18 (T),2013-11-20,126
543,CDISCPILOT01,TR,01-701-1028,228,TARGET,R2-NA,R2-T03,LPERP,Longest Perpendicular,9.9,mm,9.9,9.9,mm,,,CT SCAN,INDEPENDENT ASSESSOR,RADIOLOGIST 2,,10.1,WEEK 18 (T),2013-11-20,126
544,CDISCPILOT01,TR,01-701-1028,229,TARGET,R2-NA,R2-T04,DIAMETER,Diameter,16,mm,16,16,mm,,,CT SCAN,INDEPENDENT ASSESSOR,RADIOLOGIST 2,,10.1,WEEK 18 (T),2013-11-20,126
545,CDISCPILOT01,TR,01-701-1028,230,TARGET,R2-NA,R2-T04,LDIAM,Longest Diameter,16,mm,16,16,mm,,,CT SCAN,INDEPENDENT ASSESSOR,RADIOLOGIST 2,,10.1,WEEK 18 (T),2013-11-20,126
546,CDISCPILOT01,TR,01-701-1028,231,TARGET,R2-NA,R2-T04,LPERP,Longest Perpendicular,14.4,mm,14.4,14.4,mm,,,CT SCAN,INDEPENDENT ASSESSOR,RADIOLOGIST 2,,10.1,WEEK 18 (T),2013-11-20,126
547,CDISCPILOT01,TR,01-701-1028,232,TARGET,R2-NA,R2-T05,DIAMETER,Diameter,13,mm,13,13,mm,,,CT SCAN,INDEPENDENT ASSESSOR,RADIOLOGIST 2,,10.1,WEEK 18 (T),2013-11-20,126
548,CDISCPILOT01,TR,01-701-1028,233,TARGET,R2-NA,R2-T05,LDIAM,Longest Diameter,13,mm,13,13,mm,,,CT SCAN,INDEPENDENT ASSESSOR,RADIOLOGIST 2,,10.1,WEEK 18 (T),2013-11-20,126
549,CDISCPILOT01,TR,01-701-1028,234,TARGET,R2-NA,R2-T05,LPERP,Longest Perpendicular,11.7,mm,11.7,11.700000000000001,mm,,,CT SCAN,INDEPENDENT ASSESSOR,RADIOLOGIST 2,,10.1,WEEK 18 (T),2013-11-20,126
550,CDISCPILOT01,TR,01-701-1028,235,TARGET,,T01,DIAMETER,Diameter,13,mm,13,13,mm,,,CT SCAN,INVESTIGATOR,,,10.1,WEEK 18 (T),2013-11-20,126
551,CDISCPILOT01,TR,01-701-1028,236,TARGET,,T01,LDIAM,Longest Diameter,14.3,mm,14.3,14.3,mm,,,CT SCAN,INVESTIGATOR,,,10.1,WEEK 18 (T),2013-11-20,126
552,CDISCPILOT01,TR,01-701-1028,237,TARGET,,T01,LPERP,Longest Perpendicular,13,mm,13,13,mm,,,CT SCAN,INVESTIGATOR,,,10.1,WEEK 18 (T),2013-11-20,126
553,CDISCPILOT01,TR,01-701-1028,238,TARGET,,T02,DIAMETER,Diameter,12,mm,12,12,mm,,,CT SCAN,INVESTIGATOR,,,10.1,WEEK 18 (T),2013-11-20,126
554,CDISCPILOT01,TR,01-701-1028,239,TARGET,,T02,LDIAM,Longest Diameter,12,mm,12,12,mm,,,CT SCAN,INVESTIGATOR,,,10.1,WEEK 18 (T),2013-11-20,126
555,CDISCPILOT01,TR,01-701-1028,240,TARGET,,T02,LPERP,Longest Perpendicular,10.8,mm,10.8,10.8,mm,,,CT SCAN,INVESTIGATOR,,,10.1,WEEK 18 (T),2013-11-20,126
556,CDISCPILOT01,TR,01-701-1028,241,TARGET,,T03,DIAMETER,Diameter,14,mm,14,14,mm,,,CT SCAN,INVESTIGATOR,,,10.1,WEEK 18 (T),2013-11-20,126
557,CDISCPILOT01,TR,01-701-1028,242,TARGET,,T03,LDIAM,Longest Diameter,14,mm,14,14,mm,,,CT SCAN,INVESTIGATOR,,,10.1,WEEK 18 (T),2013-11-20,126
558,CDISCPILOT01,TR,01-701-1028,243,TARGET,,T03,LPERP,Longest Perpendicular,12.6,mm,12.6,12.6,mm,,,CT SCAN,INVESTIGATOR,,,10.1,WEEK 18 (T),2013-11-20,126
559,CDISCPILOT01,TR,01-701-1028,244,TARGET,,T04,DIAMETER,Diameter,12,mm,12,12,mm,,,CT SCAN,INVESTIGATOR,,,10.1,WEEK 18 (T),2013-11-20,126
560,CDISCPILOT01,TR,01-701-1028,245,TARGET,,T04,LDIAM,Longest Diameter,12,mm,12,12,mm,,,CT SCAN,INVESTIGATOR,,,10.1,WEEK 18 (T),2013-11-20,126
561,CDISCPILOT01,TR,01-701-1028,246,TARGET,,T04,LPERP,Longest Perpendicular,10.8,mm,10.8,10.8,mm,,,CT SCAN,INVESTIGATOR,,,10.1,WEEK 18 (T),2013-11-20,126
562,CDISCPILOT01,TR,01-701-1028,247,TARGET,,T05,DIAMETER,Diameter,11,mm,11,11,mm,,,CT SCAN,INVESTIGATOR,,,10.1,WEEK 18 (T),2013-11-20,126
563,CDISCPILOT01,TR,01-701-1028,248,TARGET,,T05,LDIAM,Longest Diameter,11,mm,11,11,mm,,,CT SCAN,INVESTIGATOR,,,10.1,WEEK 18 (T),2013-11-20,126
564,CDISCPILOT01,TR,01-701-1028,249,TARGET,,T05,LPERP,Longest Perpendicular,9.9,mm,9.9,9.9,mm,,,CT SCAN,INVESTIGATOR,,,10.1,WEEK 18 (T),2013-11-20,126
565,CDISCPILOT01,TR,01-701-1028,250,TARGET,R1-NA,,SUMDIAM,Sum of Diameter,76,mm,76,76,mm,,,CT SCAN,INDEPENDENT ASSESSOR,RADIOLOGIST 1,Y,10.1,WEEK 18 (T),2013-11-20,126
566,CDISCPILOT01,TR,01-701-1028,251,TARGET,R2-NA,,SUMDIAM,Sum of Diameter,65,mm,65,65,mm,,,CT SCAN,INDEPENDENT ASSESSOR,RADIOLOGIST 2,,10.1,WEEK 18 (T),2013-11-20,126
567,CDISCPILOT01,TR,01-701-1028,252,TARGET,,,SUMDIAM,Sum of Diameter,62,mm,62,62,mm,,,CT SCAN,INVESTIGATOR,,,10.1,WEEK 18 (T),2013-11-20,126
568,CDISCPILOT01,TR,01-701-1028,253,NEW,A4,NEW01,TUMSTATE,Tumor State,EQUIVOCAL,,EQUIVOCAL,,,,,CT SCAN,INVESTIGATOR,,,12,WEEK 24,2014-01-06,168
569,CDISCPILOT01,TR,01-701-1028,254,NEW,R1-A4,R1-NEW01,TUMSTATE,Tumor State,EQUIVOCAL,,EQUIVOCAL,,,,,CT SCAN,INDEPENDENT ASSESSOR,RADIOLOGIST 1,Y,12,WEEK 24,2014-01-06,168
570,CDISCPILOT01,TR,01-701-1028,255,NEW,R2-A4,R2-NEW01,TUMSTATE,Tumor State,EQUIVOCAL,,EQUIVOCAL,,,,,CT SCAN,INDEPENDENT ASSESSOR,RADIOLOGIST 2,,12,WEEK 24,2014-01-06,168
571,CDISCPILOT01,TR,01-701-1028,256,NON-TARGET,A4,NT01,TUMSTATE,Tumor State,ABSENT,,ABSENT,,,,,CT SCAN,INVESTIGATOR,,,12,WEEK 24,2014-01-06,168
572,CDISCPILOT01,TR,01-701-1028,257,NON-TARGET,A4,NT02,TUMSTATE,Tumor State,PRESENT,,PRESENT,,,,,CT SCAN,INVESTIGATOR,,,12,WEEK 24,2014-01-06,168
573,CDISCPILOT01,TR,01-701-1028,258,NON-TARGET,A4,NT03,TUMSTATE,Tumor State,ABSENT,,ABSENT,,,,,CT SCAN,INVESTIGATOR,,,12,WEEK 24,2014-01-06,168
574,CDISCPILOT01,TR,01-701-1028,259,NON-TARGET,A4,NT04,TUMSTATE,Tumor State,PRESENT,,PRESENT,,,,,CT SCAN,INVESTIGATOR,,,12,WEEK 24,2014-01-06,168
575,CDISCPILOT01,TR,01-701-1028,260,NON-TARGET,A4,NT05,TUMSTATE,Tumor State,,,,,,NOT DONE,NOT ASSESSABLE: Image obscured,CT SCAN,INVESTIGATOR,,,12,WEEK 24,2014-01-06,168
576,CDISCPILOT01,TR,01-701-1028,261,NON-TARGET,R1-A4,R1-NT01,TUMSTATE,Tumor State,ABSENT,,ABSENT,,,,,CT SCAN,INDEPENDENT ASSESSOR,RADIOLOGIST 1,Y,12,WEEK 24,2014-01-06,168
577,CDISCPILOT01,TR,01-701-1028,262,NON-TARGET,R1-A4,R1-NT02,TUMSTATE,Tumor State,ABSENT,,ABSENT,,,,,CT SCAN,INDEPENDENT ASSESSOR,RADIOLOGIST 1,Y,12,WEEK 24,2014-01-06,168
578,CDISCPILOT01,TR,01-701-1028,263,NON-TARGET,R1-A4,R1-NT03,TUMSTATE,Tumor State,ABSENT,,ABSENT,,,,,CT SCAN,INDEPENDENT ASSESSOR,RADIOLOGIST 1,Y,12,WEEK 24,2014-01-06,168
579,CDISCPILOT01,TR,01-701-1028,264,NON-TARGET,R1-A4,R1-NT04,TUMSTATE,Tumor State,PRESENT,,PRESENT,,,,,CT SCAN,INDEPENDENT ASSESSOR,RADIOLOGIST 1,Y,12,WEEK 24,2014-01-06,168
580,CDISCPILOT01,TR,01-701-1028,265,NON-TARGET,R1-A4,R1-NT05,TUMSTATE,Tumor State,ABSENT,,ABSENT,,,,,CT SCAN,INDEPENDENT ASSESSOR,RADIOLOGIST 1,Y,12,WEEK 24,2014-01-06,168
581,CDISCPILOT01,TR,01-701-1028,266,NON-TARGET,R2-A4,R2-NT01,TUMSTATE,Tumor State,ABSENT,,ABSENT,,,,,CT SCAN,INDEPENDENT ASSESSOR,RADIOLOGIST 2,,12,WEEK 24,2014-01-06,168
582,CDISCPILOT01,TR,01-701-1028,267,NON-TARGET,R2-A4,R2-NT02,TUMSTATE,Tumor State,PRESENT,,PRESENT,,,,,CT SCAN,INDEPENDENT ASSESSOR,RADIOLOGIST 2,,12,WEEK 24,2014-01-06,168
583,CDISCPILOT01,TR,01-701-1028,268,NON-TARGET,R2-A4,R2-NT03,TUMSTATE,Tumor State,PRESENT,,PRESENT,,,,,CT SCAN,INDEPENDENT ASSESSOR,RADIOLOGIST 2,,12,WEEK 24,2014-01-06,168
584,CDISCPILOT01,TR,01-701-1028,269,NON-TARGET,R2-A4,R2-NT04,TUMSTATE,Tumor State,PRESENT,,PRESENT,,,,,CT SCAN,INDEPENDENT ASSESSOR,RADIOLOGIST 2,,12,WEEK 24,2014-01-06,168
585,CDISCPILOT01,TR,01-701-1028,270,NON-TARGET,R2-A4,R2-NT05,TUMSTATE,Tumor State,,,,,,NOT DONE,NOT ASSESSABLE: Image obscured,CT SCAN,INDEPENDENT ASSESSOR,RADIOLOGIST 2,,12,WEEK 24,2014-01-06,168
586,CDISCPILOT01,TR,01-701-1028,271,TARGET,R1-A4,R1-T01,DIAMETER,Diameter,19,mm,19,19,mm,,,CT SCAN,INDEPENDENT ASSESSOR,RADIOLOGIST 1,Y,12,WEEK 24,2014-01-06,168
587,CDISCPILOT01,TR,01-701-1028,272,TARGET,R1-A4,R1-T01,LDIAM,Longest Diameter,19,mm,19,19,mm,,,CT SCAN,INDEPENDENT ASSESSOR,RADIOLOGIST 1,Y,12,WEEK 24,2014-01-06,168
588,CDISCPILOT01,TR,01-701-1028,273,TARGET,R1-A4,R1-T01,LPERP,Longest Perpendicular,17.1,mm,17.1,17.1,mm,,,CT SCAN,INDEPENDENT ASSESSOR,RADIOLOGIST 1,Y,12,WEEK 24,2014-01-06,168
589,CDISCPILOT01,TR,01-701-1028,274,TARGET,R1-A4,R1-T02,DIAMETER,Diameter,18,mm,18,18,mm,,,CT SCAN,INDEPENDENT ASSESSOR,RADIOLOGIST 1,Y,12,WEEK 24,2014-01-06,168
590,CDISCPILOT01,TR,01-701-1028,275,TARGET,R1-A4,R1-T02,LDIAM,Longest Diameter,19.8,mm,19.8,19.8,mm,,,CT SCAN,INDEPENDENT ASSESSOR,RADIOLOGIST 1,Y,12,WEEK 24,2014-01-06,168
591,CDISCPILOT01,TR,01-701-1028,276,TARGET,R1-A4,R1-T02,LPERP,Longest Perpendicular,18,mm,18,18,mm,,,CT SCAN,INDEPENDENT ASSESSOR,RADIOLOGIST 1,Y,12,WEEK 24,2014-01-06,168
592,CDISCPILOT01,TR,01-701-1028,277,TARGET,R1-A4,R1-T03,DIAMETER,Diameter,11,mm,11,11,mm,,,CT SCAN,INDEPENDENT ASSESSOR,RADIOLOGIST 1,Y,12,WEEK 24,2014-01-06,168
593,CDISCPILOT01,TR,01-701-1028,278,TARGET,R1-A4,R1-T03,LDIAM,Longest Diameter,11,mm,11,11,mm,,,CT SCAN,INDEPENDENT ASSESSOR,RADIOLOGIST 1,Y,12,WEEK 24,2014-01-06,168
594,CDISCPILOT01,TR,01-701-1028,279,TARGET,R1-A4,R1-T03,LPERP,Longest Perpendicular,9.9,mm,9.9,9.9,mm,,,CT SCAN,INDEPENDENT ASSESSOR,RADIOLOGIST 1,Y,12,WEEK 24,2014-01-06,168
595,CDISCPILOT01,TR,01-701-1028,280,TARGET,R1-A4,R1-T04,DIAMETER,Diameter,17,mm,17,17,mm,,,CT SCAN,INDEPENDENT ASSESSOR,RADIOLOGIST 1,Y,12,WEEK 24,2014-01-06,168
596,CDISCPILOT01,TR,01-701-1028,281,TARGET,R1-A4,R1-T04,LDIAM,Longest Diameter,17,mm,17,17,mm,,,CT SCAN,INDEPENDENT ASSESSOR,RADIOLOGIST 1,Y,12,WEEK 24,2014-01-06,168
597,CDISCPILOT01,TR,01-701-1028,282,TARGET,R1-A4,R1-T04,LPERP,Longest Perpendicular,15.3,mm,15.3,15.3,mm,,,CT SCAN,INDEPENDENT ASSESSOR,RADIOLOGIST 1,Y,12,WEEK 24,2014-01-06,168
598,CDISCPILOT01,TR,01-701-1028,283,TARGET,R1-A4,R1-T05,DIAMETER,Diameter,13,mm,13,13,mm,,,CT SCAN,INDEPENDENT ASSESSOR,RADIOLOGIST 1,Y,12,WEEK 24,2014-01-06,168
599,CDISCPILOT01,TR,01-701-1028,284,TARGET,R1-A4,R1-T05,LDIAM,Longest Diameter,13,mm,13,13,mm,,,CT SCAN,INDEPENDENT ASSESSOR,RADIOLOGIST 1,Y,12,WEEK 24,2014-01-06,168
600,CDISCPILOT01,TR,01-701-1028,285,TARGET,R1-A4,R1-T05,LPERP,Longest Perpendicular,11.7,mm,11.7,11.700000000000001,mm,,,CT SCAN,INDEPENDENT ASSESSOR,RADIOLOGIST 1,Y,12,WEEK 24,2014-01-06,168
601,CDISCPILOT01,TR,01-701-1028,286,TARGET,R2-A4,R2-T01,DIAMETER,Diameter,18,mm,18,18,mm,,,CT SCAN,INDEPENDENT ASSESSOR,RADIOLOGIST 2,,12,WEEK 24,2014-01-06,168
602,CDISCPILOT01,TR,01-701-1028,287,TARGET,R2-A4,R2-T01,LDIAM,Longest Diameter,18,mm,18,18,mm,,,CT SCAN,INDEPENDENT ASSESSOR,RADIOLOGIST 2,,12,WEEK 24,2014-01-06,168
603,CDISCPILOT01,TR,01-701-1028,288,TARGET,R2-A4,R2-T01,LPERP,Longest Perpendicular,16.2,mm,16.2,16.2,mm,,,CT SCAN,INDEPENDENT ASSESSOR,RADIOLOGIST 2,,12,WEEK 24,2014-01-06,168
604,CDISCPILOT01,TR,01-701-1028,289,TARGET,R2-A4,R2-T02,DIAMETER,Diameter,13,mm,13,13,mm,,,CT SCAN,INDEPENDENT ASSESSOR,RADIOLOGIST 2,,12,WEEK 24,2014-01-06,168
605,CDISCPILOT01,TR,01-701-1028,290,TARGET,R2-A4,R2-T02,LDIAM,Longest Diameter,13,mm,13,13,mm,,,CT SCAN,INDEPENDENT ASSESSOR,RADIOLOGIST 2,,12,WEEK 24,2014-01-06,168
606,CDISCPILOT01,TR,01-701-1028,291,TARGET,R2-A4,R2-T02,LPERP,Longest Perpendicular,11.7,mm,11.7,11.700000000000001,mm,,,CT SCAN,INDEPENDENT ASSESSOR,RADIOLOGIST 2,,12,WEEK 24,2014-01-06,168
607,CDISCPILOT01,TR,01-701-1028,292,TARGET,R2-A4,R2-T03,DIAMETER,Diameter,19,mm,19,19,mm,,,CT SCAN,INDEPENDENT ASSESSOR,RADIOLOGIST 2,,12,WEEK 24,2014-01-06,168
608,CDISCPILOT01,TR,01-701-1028,293,TARGET,R2-A4,R2-T03,LDIAM,Longest Diameter,20.9,mm,20.9,20.900000000000002,mm,,,CT SCAN,INDEPENDENT ASSESSOR,RADIOLOGIST 2,,12,WEEK 24,2014-01-06,168
609,CDISCPILOT01,TR,01-701-1028,294,TARGET,R2-A4,R2-T03,LPERP,Longest Perpendicular,19,mm,19,19,mm,,,CT SCAN,INDEPENDENT ASSESSOR,RADIOLOGIST 2,,12,WEEK 24,2014-01-06,168
610,CDISCPILOT01,TR,01-701-1028,295,TARGET,R2-A4,R2-T04,DIAMETER,Diameter,15,mm,15,15,mm,,,CT SCAN,INDEPENDENT ASSESSOR,RADIOLOGIST 2,,12,WEEK 24,2014-01-06,168
611,CDISCPILOT01,TR,01-701-1028,296,TARGET,R2-A4,R2-T04,LDIAM,Longest Diameter,15,mm,15,15,mm,,,CT SCAN,INDEPENDENT ASSESSOR,RADIOLOGIST 2,,12,WEEK 24,2014-01-06,168
612,CDISCPILOT01,TR,01-701-1028,297,TARGET,R2-A4,R2-T04,LPERP,Longest Perpendicular,13.5,mm,13.5,13.5,mm,,,CT SCAN,INDEPENDENT ASSESSOR,RADIOLOGIST 2,,12,WEEK 24,2014-01-06,168
613,CDISCPILOT01,TR,01-701-1028,298,TARGET,R2-A4,R2-T05,DIAMETER,Diameter,12,mm,12,12,mm,,,CT SCAN,INDEPENDENT ASSESSOR,RADIOLOGIST 2,,12,WEEK 24,2014-01-06,168
614,CDISCPILOT01,TR,01-701-1028,299,TARGET,R2-A4,R2-T05,LDIAM,Longest Diameter,12,mm,12,12,mm,,,CT SCAN,INDEPENDENT ASSESSOR,RADIOLOGIST 2,,12,WEEK 24,2014-01-06,168
615,CDISCPILOT01,TR,01-701-1028,300,TARGET,R2-A4,R2-T05,LPERP,Longest Perpendicular,10.8,mm,10.8,10.8,mm,,,CT SCAN,INDEPENDENT ASSESSOR,RADIOLOGIST 2,,12,WEEK 24,2014-01-06,168
616,CDISCPILOT01,TR,01-701-1028,301,TARGET,A4,T01,DIAMETER,Diameter,18,mm,18,18,mm,,,CT SCAN,INVESTIGATOR,,,12,WEEK 24,2014-01-06,168
617,CDISCPILOT01,TR,01-701-1028,302,TARGET,A4,T01,LDIAM,Longest Diameter,18,mm,18,18,mm,,,CT SCAN,INVESTIGATOR,,,12,WEEK 24,2014-01-06,168
618,CDISCPILOT01,TR,01-701-1028,303,TARGET,A4,T01,LPERP,Longest Perpendicular,16.2,mm,16.2,16.2,mm,,,CT SCAN,INVESTIGATOR,,,12,WEEK 24,2014-01-06,168
619,CDISCPILOT01,TR,01-701-1028,304,TARGET,A4,T02,DIAMETER,Diameter,18,mm,18,18,mm,,,CT SCAN,INVESTIGATOR,,,12,WEEK 24,2014-01-06,168
620,CDISCPILOT01,TR,01-701-1028,305,TARGET,A4,T02,LDIAM,Longest Diameter,18,mm,18,18,mm,,,CT SCAN,INVESTIGATOR,,,12,WEEK 24,2014-01-06,168
621,CDISCPILOT01,TR,01-701-1028,306,TARGET,A4,T02,LPERP,Longest Perpendicular,16.2,mm,16.2,16.2,mm,,,CT SCAN,INVESTIGATOR,,,12,WEEK 24,2014-01-06,168
622,CDISCPILOT01,TR,01-701-1028,307,TARGET,A4,T03,DIAMETER,Diameter,15,mm,15,15,mm,,,CT SCAN,INVESTIGATOR,,,12,WEEK 24,2014-01-06,168
623,CDISCPILOT01,TR,01-701-1028,308,TARGET,A4,T03,LDIAM,Longest Diameter,16.5,mm,16.5,16.5,mm,,,CT SCAN,INVESTIGATOR,,,12,WEEK 24,2014-01-06,168
624,CDISCPILOT01,TR,01-701-1028,309,TARGET,A4,T03,LPERP,Longest Perpendicular,15,mm,15,15,mm,,,CT SCAN,INVESTIGATOR,,,12,WEEK 24,2014-01-06,168
625,CDISCPILOT01,TR,01-701-1028,310,TARGET,A4,T04,DIAMETER,Diameter,10,mm,10,10,mm,,,CT SCAN,INVESTIGATOR,,,12,WEEK 24,2014-01-06,168
626,CDISCPILOT01,TR,01-701-1028,311,TARGET,A4,T04,LDIAM,Longest Diameter,10,mm,10,10,mm,,,CT SCAN,INVESTIGATOR,,,12,WEEK 24,2014-01-06,168
627,CDISCPILOT01,TR,01-701-1028,312,TARGET,A4,T04,LPERP,Longest Perpendicular,9,mm,9,9,mm,,,CT SCAN,INVESTIGATOR,,,12,WEEK 24,2014-01-06,168
628,CDISCPILOT01,TR,01-701-1028,313,TARGET,A4,T05,DIAMETER,Diameter,18,mm,18,18,mm,,,CT SCAN,INVESTIGATOR,,,12,WEEK 24,2014-01-06,168
629,CDISCPILOT01,TR,01-701-1028,314,TARGET,A4,T05,LDIAM,Longest Diameter,18,mm,18,18,mm,,,CT SCAN,INVESTIGATOR,,,12,WEEK 24,2014-01-06,168
630,CDISCPILOT01,TR,01-701-1028,315,TARGET,A4,T05,LPERP,Longest Perpendicular,16.2,mm,16.2,16.2,mm,,,CT SCAN,INVESTIGATOR,,,12,WEEK 24,2014-01-06,168
631,CDISCPILOT01,TR,01-701-1028,316,TARGET,R1-A4,,SUMDIAM,Sum of Diameter,78,mm,78,78,mm,,,CT SCAN,INDEPENDENT ASSESSOR,RADIOLOGIST 1,Y,12,WEEK 24,2014-01-06,168
632,CDISCPILOT01,TR,01-701-1028,317,TARGET,R2-A4,,SUMDIAM,Sum of Diameter,77,mm,77,77,mm,,,CT SCAN,INDEPENDENT ASSESSOR,RADIOLOGIST 2,,12,WEEK 24,2014-01-06,168
633,CDISCPILOT01,TR,01-701-1028,318,TARGET,A4,,SUMDIAM,Sum of Diameter,79,mm,79,79,mm,,,CT SCAN,INVESTIGATOR,,,12,WEEK 24,2014-01-06,168
634,CDISCPILOT01,TR,01-701-1033,1,NON-TARGET,A1,NT01,TUMSTATE,Tumor State,PRESENT,,PRESENT,,,,,CT SCAN,INVESTIGATOR,,,3,BASELINE,2014-03-18,1
635,CDISCPILOT01,TR,01-701-1033,2,NON-TARGET,A1,NT02,TUMSTATE,Tumor State,PRESENT,,PRESENT,,,,,CT SCAN,INVESTIGATOR,,,3,BASELINE,2014-03-18,1
636,CDISCPILOT01,TR,01-701-1033,3,NON-TARGET,A1,NT03,TUMSTATE,Tumor State,PRESENT,,PRESENT,,,,,CT SCAN,INVESTIGATOR,,,3,BASELINE,2014-03-18,1
637,CDISCPILOT01,TR,01-701-1033,4,NON-TARGET,A1,NT04,TUMSTATE,Tumor State,PRESENT,,PRESENT,,,,,CT SCAN,INVESTIGATOR,,,3,BASELINE,2014-03-18,1
638,CDISCPILOT01,TR,01-701-1033,5,NON-TARGET,A1,NT05,TUMSTATE,Tumor State,PRESENT,,PRESENT,,,,,CT SCAN,INVESTIGATOR,,,3,BASELINE,2014-03-18,1
639,CDISCPILOT01,TR,01-701-1033,6,NON-TARGET,R1-A1,R1-NT01,TUMSTATE,Tumor State,PRESENT,,PRESENT,,,,,CT SCAN,INDEPENDENT ASSESSOR,RADIOLOGIST 1,Y,3,BASELINE,2014-03-18,1
640,CDISCPILOT01,TR,01-701-1033,7,NON-TARGET,R1-A1,R1-NT02,TUMSTATE,Tumor State,PRESENT,,PRESENT,,,,,CT SCAN,INDEPENDENT ASSESSOR,RADIOLOGIST 1,Y,3,BASELINE,2014-03-18,1
641,CDISCPILOT01,TR,01-701-1033,8,NON-TARGET,R1-A1,R1-NT03,TUMSTATE,Tumor State,PRESENT,,PRESENT,,,,,CT SCAN,INDEPENDENT ASSESSOR,RADIOLOGIST 1,Y,3,BASELINE,2014-03-18,1
642,CDISCPILOT01,TR,01-701-1033,9,NON-TARGET,R1-A1,R1-NT04,TUMSTATE,Tumor State,PRESENT,,PRESENT,,,,,CT SCAN,INDEPENDENT ASSESSOR,RADIOLOGIST 1,Y,3,BASELINE,2014-03-18,1
643,CDISCPILOT01,TR,01-701-1033,10,NON-TARGET,R1-A1,R1-NT05,TUMSTATE,Tumor State,PRESENT,,PRESENT,,,,,CT SCAN,INDEPENDENT ASSESSOR,RADIOLOGIST 1,Y,3,BASELINE,2014-03-18,1
644,CDISCPILOT01,TR,01-701-1033,11,NON-TARGET,R2-A1,R2-NT01,TUMSTATE,Tumor State,PRESENT,,PRESENT,,,,,CT SCAN,INDEPENDENT ASSESSOR,RADIOLOGIST 2,,3,BASELINE,2014-03-18,1
645,CDISCPILOT01,TR,01-701-1033,12,NON-TARGET,R2-A1,R2-NT02,TUMSTATE,Tumor State,PRESENT,,PRESENT,,,,,CT SCAN,INDEPENDENT ASSESSOR,RADIOLOGIST 2,,3,BASELINE,2014-03-18,1
646,CDISCPILOT01,TR,01-701-1033,13,NON-TARGET,R2-A1,R2-NT03,TUMSTATE,Tumor State,PRESENT,,PRESENT,,,,,CT SCAN,INDEPENDENT ASSESSOR,RADIOLOGIST 2,,3,BASELINE,2014-03-18,1
647,CDISCPILOT01,TR,01-701-1033,14,NON-TARGET,R2-A1,R2-NT04,TUMSTATE,Tumor State,PRESENT,,PRESENT,,,,,CT SCAN,INDEPENDENT ASSESSOR,RADIOLOGIST 2,,3,BASELINE,2014-03-18,1
648,CDISCPILOT01,TR,01-701-1033,15,NON-TARGET,R2-A1,R2-NT05,TUMSTATE,Tumor State,PRESENT,,PRESENT,,,,,CT SCAN,INDEPENDENT ASSESSOR,RADIOLOGIST 2,,3,BASELINE,2014-03-18,1
649,CDISCPILOT01,TR,01-701-1033,16,TARGET,R1-A1,R1-T01,DIAMETER,Diameter,13,mm,13,13,mm,,,CT SCAN,INDEPENDENT ASSESSOR,RADIOLOGIST 1,Y,3,BASELINE,2014-03-18,1
650,CDISCPILOT01,TR,01-701-1033,17,TARGET,R1-A1,R1-T01,LDIAM,Longest Diameter,13,mm,13,13,mm,,,CT SCAN,INDEPENDENT ASSESSOR,RADIOLOGIST 1,Y,3,BASELINE,2014-03-18,1
651,CDISCPILOT01,TR,01-701-1033,18,TARGET,R1-A1,R1-T01,LPERP,Longest Perpendicular,11.7,mm,11.7,11.700000000000001,mm,,,CT SCAN,INDEPENDENT ASSESSOR,RADIOLOGIST 1,Y,3,BASELINE,2014-03-18,1
652,CDISCPILOT01,TR,01-701-1033,19,TARGET,R1-A1,R1-T02,DIAMETER,Diameter,18,mm,18,18,mm,,,CT SCAN,INDEPENDENT ASSESSOR,RADIOLOGIST 1,Y,3,BASELINE,2014-03-18,1
653,CDISCPILOT01,TR,01-701-1033,20,TARGET,R1-A1,R1-T02,LDIAM,Longest Diameter,18,mm,18,18,mm,,,CT SCAN,INDEPENDENT ASSESSOR,RADIOLOGIST 1,Y,3,BASELINE,2014-03-18,1
654,CDISCPILOT01,TR,01-701-1033,21,TARGET,R1-A1,R1-T02,LPERP,Longest Perpendicular,16.2,mm,16.2,16.2,mm,,,CT SCAN,INDEPENDENT ASSESSOR,RADIOLOGIST 1,Y,3,BASELINE,2014-03-18,1
655,CDISCPILOT01,TR,01-701-1033,22,TARGET,R1-A1,R1-T03,DIAMETER,Diameter,15,mm,15,15,mm,,,CT SCAN,INDEPENDENT ASSESSOR,RADIOLOGIST 1,Y,3,BASELINE,2014-03-18,1
656,CDISCPILOT01,TR,01-701-1033,23,TARGET,R1-A1,R1-T03,LDIAM,Longest Diameter,16.5,mm,16.5,16.5,mm,,,CT SCAN,INDEPENDENT ASSESSOR,RADIOLOGIST 1,Y,3,BASELINE,2014-03-18,1
657,CDISCPILOT01,TR,01-701-1033,24,TARGET,R1-A1,R1-T03,LPERP,Longest Perpendicular,15,mm,15,15,mm,,,CT SCAN,INDEPENDENT ASSESSOR,RADIOLOGIST 1,Y,3,BASELINE,2014-03-18,1
658,CDISCPILOT01,TR,01-701-1033,25,TARGET,R1-A1,R1-T04,DIAMETER,Diameter,15,mm,15,15,mm,,,CT SCAN,INDEPENDENT ASSESSOR,RADIOLOGIST 1,Y,3,BASELINE,2014-03-18,1
659,CDISCPILOT01,TR,01-701-1033,26,TARGET,R1-A1,R1-T04,LDIAM,Longest Diameter,15,mm,15,15,mm,,,CT SCAN,INDEPENDENT ASSESSOR,RADIOLOGIST 1,Y,3,BASELINE,2014-03-18,1
660,CDISCPILOT01,TR,01-701-1033,27,TARGET,R1-A1,R1-T04,LPERP,Longest Perpendicular,13.5,mm,13.5,13.5,mm,,,CT SCAN,INDEPENDENT ASSESSOR,RADIOLOGIST 1,Y,3,BASELINE,2014-03-18,1
661,CDISCPILOT01,TR,01-701-1033,28,TARGET,R1-A1,R1-T05,DIAMETER,Diameter,14,mm,14,14,mm,,,CT SCAN,INDEPENDENT ASSESSOR,RADIOLOGIST 1,Y,3,BASELINE,2014-03-18,1
662,CDISCPILOT01,TR,01-701-1033,29,TARGET,R1-A1,R1-T05,LDIAM,Longest Diameter,14,mm,14,14,mm,,,CT SCAN,INDEPENDENT ASSESSOR,RADIOLOGIST 1,Y,3,BASELINE,2014-03-18,1
663,CDISCPILOT01,TR,01-701-1033,30,TARGET,R1-A1,R1-T05,LPERP,Longest Perpendicular,12.6,mm,12.6,12.6,mm,,,CT SCAN,INDEPENDENT ASSESSOR,RADIOLOGIST 1,Y,3,BASELINE,2014-03-18,1
664,CDISCPILOT01,TR,01-701-1033,31,TARGET,R2-A1,R2-T01,DIAMETER,Diameter,11,mm,11,11,mm,,,CT SCAN,INDEPENDENT ASSESSOR,RADIOLOGIST 2,,3,BASELINE,2014-03-18,1
665,CDISCPILOT01,TR,01-701-1033,32,TARGET,R2-A1,R2-T01,LDIAM,Longest Diameter,11,mm,11,11,mm,,,CT SCAN,INDEPENDENT ASSESSOR,RADIOLOGIST 2,,3,BASELINE,2014-03-18,1
666,CDISCPILOT01,TR,01-701-1033,33,TARGET,R2-A1,R2-T01,LPERP,Longest Perpendicular,9.9,mm,9.9,9.9,mm,,,CT SCAN,INDEPENDENT ASSESSOR,RADIOLOGIST 2,,3,BASELINE,2014-03-18,1
667,CDISCPILOT01,TR,01-701-1033,34,TARGET,R2-A1,R2-T02,DIAMETER,Diameter,14,mm,14,14,mm,,,CT SCAN,INDEPENDENT ASSESSOR,RADIOLOGIST 2,,3,BASELINE,2014-03-18,1
668,CDISCPILOT01,TR,01-701-1033,35,TARGET,R2-A1,R2-T02,LDIAM,Longest Diameter,14,mm,14,14,mm,,,CT SCAN,INDEPENDENT ASSESSOR,RADIOLOGIST 2,,3,BASELINE,2014-03-18,1
669,CDISCPILOT01,TR,01-701-1033,36,TARGET,R2-A1,R2-T02,LPERP,Longest Perpendicular,12.6,mm,12.6,12.6,mm,,,CT SCAN,INDEPENDENT ASSESSOR,RADIOLOGIST 2,,3,BASELINE,2014-03-18,1
670,CDISCPILOT01,TR,01-701-1033,37,TARGET,R2-A1,R2-T03,DIAMETER,Diameter,17,mm,17,17,mm,,,CT SCAN,INDEPENDENT ASSESSOR,RADIOLOGIST 2,,3,BASELINE,2014-03-18,1
671,CDISCPILOT01,TR,01-701-1033,38,TARGET,R2-A1,R2-T03,LDIAM,Longest Diameter,17,mm,17,17,mm,,,CT SCAN,INDEPENDENT ASSESSOR,RADIOLOGIST 2,,3,BASELINE,2014-03-18,1
672,CDISCPILOT01,TR,01-701-1033,39,TARGET,R2-A1,R2-T03,LPERP,Longest Perpendicular,15.3,mm,15.3,15.3,mm,,,CT SCAN,INDEPENDENT ASSESSOR,RADIOLOGIST 2,,3,BASELINE,2014-03-18,1
673,CDISCPILOT01,TR,01-701-1033,40,TARGET,R2-A1,R2-T04,DIAMETER,Diameter,17,mm,17,17,mm,,,CT SCAN,INDEPENDENT ASSESSOR,RADIOLOGIST 2,,3,BASELINE,2014-03-18,1
674,CDISCPILOT01,TR,01-701-1033,41,TARGET,R2-A1,R2-T04,LDIAM,Longest Diameter,17,mm,17,17,mm,,,CT SCAN,INDEPENDENT ASSESSOR,RADIOLOGIST 2,,3,BASELINE,2014-03-18,1
675,CDISCPILOT01,TR,01-701-1033,42,TARGET,R2-A1,R2-T04,LPERP,Longest Perpendicular,15.3,mm,15.3,15.3,mm,,,CT SCAN,INDEPENDENT ASSESSOR,RADIOLOGIST 2,,3,BASELINE,2014-03-18,1
676,CDISCPILOT01,TR,01-701-1033,43,TARGET,R2-A1,R2-T05,DIAMETER,Diameter,14,mm,14,14,mm,,,CT SCAN,INDEPENDENT ASSESSOR,RADIOLOGIST 2,,3,BASELINE,2014-03-18,1
677,CDISCPILOT01,TR,01-701-1033,44,TARGET,R2-A1,R2-T05,LDIAM,Longest Diameter,14,mm,14,14,mm,,,CT SCAN,INDEPENDENT ASSESSOR,RADIOLOGIST 2,,3,BASELINE,2014-03-18,1
678,CDISCPILOT01,TR,01-701-1033,45,TARGET,R2-A1,R2-T05,LPERP,Longest Perpendicular,12.6,mm,12.6,12.6,mm,,,CT SCAN,INDEPENDENT ASSESSOR,RADIOLOGIST 2,,3,BASELINE,2014-03-18,1
679,CDISCPILOT01,TR,01-701-1033,46,TARGET,A1,T01,DIAMETER,Diameter,19,mm,19,19,mm,,,CT SCAN,INVESTIGATOR,,,3,BASELINE,2014-03-18,1
680,CDISCPILOT01,TR,01-701-1033,47,TARGET,A1,T01,LDIAM,Longest Diameter,19,mm,19,19,mm,,,CT SCAN,INVESTIGATOR,,,3,BASELINE,2014-03-18,1
681,CDISCPILOT01,TR,01-701-1033,48,TARGET,A1,T01,LPERP,Longest Perpendicular,17.1,mm,17.1,17.1,mm,,,CT SCAN,INVESTIGATOR,,,3,BASELINE,2014-03-18,1
682,CDISCPILOT01,TR,01-701-1033,49,TARGET,A1,T02,DIAMETER,Diameter,16,mm,16,16,mm,,,CT SCAN,INVESTIGATOR,,,3,BASELINE,2014-03-18,1
683,CDISCPILOT01,TR,01-701-1033,50,TARGET,A1,T02,LDIAM,Longest Diameter,16,mm,16,16,mm,,,CT SCAN,INVESTIGATOR,,,3,BASELINE,2014-03-18,1
684,CDISCPILOT01,TR,01-701-1033,51,TARGET,A1,T02,LPERP,Longest Perpendicular,14.4,mm,14.4,14.4,mm,,,CT SCAN,INVESTIGATOR,,,3,BASELINE,2014-03-18,1
685,CDISCPILOT01,TR,01-701-1033,52,TARGET,A1,T03,DIAMETER,Diameter,18,mm,18,18,mm,,,CT SCAN,INVESTIGATOR,,,3,BASELINE,2014-03-18,1
686,CDISCPILOT01,TR,01-701-1033,53,TARGET,A1,T03,LDIAM,Longest Diameter,19.8,mm,19.8,19.8,mm,,,CT SCAN,INVESTIGATOR,,,3,BASELINE,2014-03-18,1
687,CDISCPILOT01,TR,01-701-1033,54,TARGET,A1,T03,LPERP,Longest Perpendicular,18,mm,18,18,mm,,,CT SCAN,INVESTIGATOR,,,3,BASELINE,2014-03-18,1
688,CDISCPILOT01,TR,01-701-1033,55,TARGET,A1,T04,DIAMETER,Diameter,13,mm,13,13,mm,,,CT SCAN,INVESTIGATOR,,,3,BASELINE,2014-03-18,1
689,CDISCPILOT01,TR,01-701-1033,56,TARGET,A1,T04,LDIAM,Longest Diameter,13,mm,13,13,mm,,,CT SCAN,INVESTIGATOR,,,3,BASELINE,2014-03-18,1
690,CDISCPILOT01,TR,01-701-1033,57,TARGET,A1,T04,LPERP,Longest Perpendicular,11.7,mm,11.7,11.700000000000001,mm,,,CT SCAN,INVESTIGATOR,,,3,BASELINE,2014-03-18,1
691,CDISCPILOT01,TR,01-701-1033,58,TARGET,A1,T05,DIAMETER,Diameter,18,mm,18,18,mm,,,CT SCAN,INVESTIGATOR,,,3,BASELINE,2014-03-18,1
692,CDISCPILOT01,TR,01-701-1033,59,TARGET,A1,T05,LDIAM,Longest Diameter,18,mm,18,18,mm,,,CT SCAN,INVESTIGATOR,,,3,BASELINE,2014-03-18,1
693,CDISCPILOT01,TR,01-701-1033,60,TARGET,A1,T05,LPERP,Longest Perpendicular,16.2,mm,16.2,16.2,mm,,,CT SCAN,INVESTIGATOR,,,3,BASELINE,2014-03-18,1
694,CDISCPILOT01,TR,01-701-1033,61,TARGET,R1-A1,,SUMDIAM,Sum of Diameter,75,mm,75,75,mm,,,CT SCAN,INDEPENDENT ASSESSOR,RADIOLOGIST 1,Y,3,BASELINE,2014-03-18,1
695,CDISCPILOT01,TR,01-701-1033,62,TARGET,R2-A1,,SUMDIAM,Sum of Diameter,73,mm,73,73,mm,,,CT SCAN,INDEPENDENT ASSESSOR,RADIOLOGIST 2,,3,BASELINE,2014-03-18,1
696,CDISCPILOT01,TR,01-701-1033,63,TARGET,A1,,SUMDIAM,Sum of Diameter,84,mm,84,84,mm,,,CT SCAN,INVESTIGATOR,,,3,BASELINE,2014-03-18,1
697,CDISCPILOT01,TR,01-701-1034,1,NON-TARGET,A1,NT01,TUMSTATE,Tumor State,PRESENT,,PRESENT,,,,,CT SCAN,INVESTIGATOR,,,3,BASELINE,2014-07-01,1
698,CDISCPILOT01,TR,01-701-1034,2,NON-TARGET,A1,NT02,TUMSTATE,Tumor State,PRESENT,,PRESENT,,,,,CT SCAN,INVESTIGATOR,,,3,BASELINE,2014-07-01,1
699,CDISCPILOT01,TR,01-701-1034,3,NON-TARGET,A1,NT03,TUMSTATE,Tumor State,PRESENT,,PRESENT,,,,,CT SCAN,INVESTIGATOR,,,3,BASELINE,2014-07-01,1
700,CDISCPILOT01,TR,01-701-1034,4,NON-TARGET,A1,NT04,TUMSTATE,Tumor State,PRESENT,,PRESENT,,,,,CT SCAN,INVESTIGATOR,,,3,BASELINE,2014-07-01,1
701,CDISCPILOT01,TR,01-701-1034,5,NON-TARGET,A1,NT05,TUMSTATE,Tumor State,PRESENT,,PRESENT,,,,,CT SCAN,INVESTIGATOR,,,3,BASELINE,2014-07-01,1
702,CDISCPILOT01,TR,01-701-1034,6,NON-TARGET,R1-A1,R1-NT01,TUMSTATE,Tumor State,PRESENT,,PRESENT,,,,,CT SCAN,INDEPENDENT ASSESSOR,RADIOLOGIST 1,Y,3,BASELINE,2014-07-01,1
703,CDISCPILOT01,TR,01-701-1034,7,NON-TARGET,R1-A1,R1-NT02,TUMSTATE,Tumor State,PRESENT,,PRESENT,,,,,CT SCAN,INDEPENDENT ASSESSOR,RADIOLOGIST 1,Y,3,BASELINE,2014-07-01,1
704,CDISCPILOT01,TR,01-701-1034,8,NON-TARGET,R1-A1,R1-NT03,TUMSTATE,Tumor State,PRESENT,,PRESENT,,,,,CT SCAN,INDEPENDENT ASSESSOR,RADIOLOGIST 1,Y,3,BASELINE,2014-07-01,1
705,CDISCPILOT01,TR,01-701-1034,9,NON-TARGET,R1-A1,R1-NT04,TUMSTATE,Tumor State,PRESENT,,PRESENT,,,,,CT SCAN,INDEPENDENT ASSESSOR,RADIOLOGIST 1,Y,3,BASELINE,2014-07-01,1
706,CDISCPILOT01,TR,01-701-1034,10,NON-TARGET,R1-A1,R1-NT05,TUMSTATE,Tumor State,PRESENT,,PRESENT,,,,,CT SCAN,INDEPENDENT ASSESSOR,RADIOLOGIST 1,Y,3,BASELINE,2014-07-01,1
707,CDISCPILOT01,TR,01-701-1034,11,NON-TARGET,R2-A1,R2-NT01,TUMSTATE,Tumor State,PRESENT,,PRESENT,,,,,CT SCAN,INDEPENDENT ASSESSOR,RADIOLOGIST 2,,3,BASELINE,2014-07-01,1
708,CDISCPILOT01,TR,01-701-1034,12,NON-TARGET,R2-A1,R2-NT02,TUMSTATE,Tumor State,PRESENT,,PRESENT,,,,,CT SCAN,INDEPENDENT ASSESSOR,RADIOLOGIST 2,,3,BASELINE,2014-07-01,1
709,CDISCPILOT01,TR,01-701-1034,13,NON-TARGET,R2-A1,R2-NT03,TUMSTATE,Tumor State,PRESENT,,PRESENT,,,,,CT SCAN,INDEPENDENT ASSESSOR,RADIOLOGIST 2,,3,BASELINE,2014-07-01,1
710,CDISCPILOT01,TR,01-701-1034,14,NON-TARGET,R2-A1,R2-NT04,TUMSTATE,Tumor State,PRESENT,,PRESENT,,,,,CT SCAN,INDEPENDENT ASSESSOR,RADIOLOGIST 2,,3,BASELINE,2014-07-01,1
711,CDISCPILOT01,TR,01-701-1034,15,NON-TARGET,R2-A1,R2-NT05,TUMSTATE,Tumor State,PRESENT,,PRESENT,,,,,CT SCAN,INDEPENDENT ASSESSOR,RADIOLOGIST 2,,3,BASELINE,2014-07-01,1
712,CDISCPILOT01,TR,01-701-1034,16,TARGET,R1-A1,R1-T01,DIAMETER,Diameter,13,mm,13,13,mm,,,CT SCAN,INDEPENDENT ASSESSOR,RADIOLOGIST 1,Y,3,BASELINE,2014-07-01,1
713,CDISCPILOT01,TR,01-701-1034,17,TARGET,R1-A1,R1-T01,LDIAM,Longest Diameter,13,mm,13,13,mm,,,CT SCAN,INDEPENDENT ASSESSOR,RADIOLOGIST 1,Y,3,BASELINE,2014-07-01,1
714,CDISCPILOT01,TR,01-701-1034,18,TARGET,R1-A1,R1-T01,LPERP,Longest Perpendicular,11.7,mm,11.7,11.700000000000001,mm,,,CT SCAN,INDEPENDENT ASSESSOR,RADIOLOGIST 1,Y,3,BASELINE,2014-07-01,1
715,CDISCPILOT01,TR,01-701-1034,19,TARGET,R1-A1,R1-T02,DIAMETER,Diameter,10,mm,10,10,mm,,,CT SCAN,INDEPENDENT ASSESSOR,RADIOLOGIST 1,Y,3,BASELINE,2014-07-01,1
716,CDISCPILOT01,TR,01-701-1034,20,TARGET,R1-A1,R1-T02,LDIAM,Longest Diameter,11,mm,11,11,mm,,,CT SCAN,INDEPENDENT ASSESSOR,RADIOLOGIST 1,Y,3,BASELINE,2014-07-01,1
717,CDISCPILOT01,TR,01-701-1034,21,TARGET,R1-A1,R1-T02,LPERP,Longest Perpendicular,10,mm,10,10,mm,,,CT SCAN,INDEPENDENT ASSESSOR,RADIOLOGIST 1,Y,3,BASELINE,2014-07-01,1
718,CDISCPILOT01,TR,01-701-1034,22,TARGET,R1-A1,R1-T03,DIAMETER,Diameter,12,mm,12,12,mm,,,CT SCAN,INDEPENDENT ASSESSOR,RADIOLOGIST 1,Y,3,BASELINE,2014-07-01,1
719,CDISCPILOT01,TR,01-701-1034,23,TARGET,R1-A1,R1-T03,LDIAM,Longest Diameter,12,mm,12,12,mm,,,CT SCAN,INDEPENDENT ASSESSOR,RADIOLOGIST 1,Y,3,BASELINE,2014-07-01,1
720,CDISCPILOT01,TR,01-701-1034,24,TARGET,R1-A1,R1-T03,LPERP,Longest Perpendicular,10.8,mm,10.8,10.8,mm,,,CT SCAN,INDEPENDENT ASSESSOR,RADIOLOGIST 1,Y,3,BASELINE,2014-07-01,1
721,CDISCPILOT01,TR,01-701-1034,25,TARGET,R1-A1,R1-T04,DIAMETER,Diameter,12,mm,12,12,mm,,,CT SCAN,INDEPENDENT ASSESSOR,RADIOLOGIST 1,Y,3,BASELINE,2014-07-01,1
722,CDISCPILOT01,TR,01-701-1034,26,TARGET,R1-A1,R1-T04,LDIAM,Longest Diameter,12,mm,12,12,mm,,,CT SCAN,INDEPENDENT ASSESSOR,RADIOLOGIST 1,Y,3,BASELINE,2014-07-01,1
723,CDISCPILOT01,TR,01-701-1034,27,TARGET,R1-A1,R1-T04,LPERP,Longest Perpendicular,10.8,mm,10.8,10.8,mm,,,CT SCAN,INDEPENDENT ASSESSOR,RADIOLOGIST 1,Y,3,BASELINE,2014-07-01,1
724,CDISCPILOT01,TR,01-701-1034,28,TARGET,R1-A1,R1-T05,DIAMETER,Diameter,10,mm,10,10,mm,,,CT SCAN,INDEPENDENT ASSESSOR,RADIOLOGIST 1,Y,3,BASELINE,2014-07-01,1
725,CDISCPILOT01,TR,01-701-1034,29,TARGET,R1-A1,R1-T05,LDIAM,Longest Diameter,10,mm,10,10,mm,,,CT SCAN,INDEPENDENT ASSESSOR,RADIOLOGIST 1,Y,3,BASELINE,2014-07-01,1
726,CDISCPILOT01,TR,01-701-1034,30,TARGET,R1-A1,R1-T05,LPERP,Longest Perpendicular,9,mm,9,9,mm,,,CT SCAN,INDEPENDENT ASSESSOR,RADIOLOGIST 1,Y,3,BASELINE,2014-07-01,1
727,CDISCPILOT01,TR,01-701-1034,31,TARGET,R2-A1,R2-T01,DIAMETER,Diameter,7,mm,7,7,mm,,,CT SCAN,INDEPENDENT ASSESSOR,RADIOLOGIST 2,,3,BASELINE,2014-07-01,1
728,CDISCPILOT01,TR,01-701-1034,32,TARGET,R2-A1,R2-T01,LDIAM,Longest Diameter,7,mm,7,7,mm,,,CT SCAN,INDEPENDENT ASSESSOR,RADIOLOGIST 2,,3,BASELINE,2014-07-01,1
729,CDISCPILOT01,TR,01-701-1034,33,TARGET,R2-A1,R2-T01,LPERP,Longest Perpendicular,6.3,mm,6.3,6.3,mm,,,CT SCAN,INDEPENDENT ASSESSOR,RADIOLOGIST 2,,3,BASELINE,2014-07-01,1
730,CDISCPILOT01,TR,01-701-1034,34,TARGET,R2-A1,R2-T02,DIAMETER,Diameter,12,mm,12,12,mm,,,CT SCAN,INDEPENDENT ASSESSOR,RADIOLOGIST 2,,3,BASELINE,2014-07-01,1
731,CDISCPILOT01,TR,01-701-1034,35,TARGET,R2-A1,R2-T02,LDIAM,Longest Diameter,13.2,mm,13.2,13.200000000000001,mm,,,CT SCAN,INDEPENDENT ASSESSOR,RADIOLOGIST 2,,3,BASELINE,2014-07-01,1
732,CDISCPILOT01,TR,01-701-1034,36,TARGET,R2-A1,R2-T02,LPERP,Longest Perpendicular,12,mm,12,12,mm,,,CT SCAN,INDEPENDENT ASSESSOR,RADIOLOGIST 2,,3,BASELINE,2014-07-01,1
733,CDISCPILOT01,TR,01-701-1034,37,TARGET,R2-A1,R2-T03,DIAMETER,Diameter,5,mm,5,5,mm,,,CT SCAN,INDEPENDENT ASSESSOR,RADIOLOGIST 2,,3,BASELINE,2014-07-01,1
734,CDISCPILOT01,TR,01-701-1034,38,TARGET,R2-A1,R2-T03,LDIAM,Longest Diameter,5,mm,5,5,mm,,,CT SCAN,INDEPENDENT ASSESSOR,RADIOLOGIST 2,,3,BASELINE,2014-07-01,1
735,CDISCPILOT01,TR,01-701-1034,39,TARGET,R2-A1,R2-T03,LPERP,Longest Perpendicular,4.5,mm,4.5,4.5,mm,,,CT SCAN,INDEPENDENT ASSESSOR,RADIOLOGIST 2,,3,BASELINE,2014-07-01,1
736,CDISCPILOT01,TR,01-701-1034,40,TARGET,R2-A1,R2-T04,DIAMETER,Diameter,9,mm,9,9,mm,,,CT SCAN,INDEPENDENT ASSESSOR,RADIOLOGIST 2,,3,BASELINE,2014-07-01,1
737,CDISCPILOT01,TR,01-701-1034,41,TARGET,R2-A1,R2-T04,LDIAM,Longest Diameter,9,mm,9,9,mm,,,CT SCAN,INDEPENDENT ASSESSOR,RADIOLOGIST 2,,3,BASELINE,2014-07-01,1
738,CDISCPILOT01,TR,01-701-1034,42,TARGET,R2-A1,R2-T04,LPERP,Longest Perpendicular,8.1,mm,8.1,8.1,mm,,,CT SCAN,INDEPENDENT ASSESSOR,RADIOLOGIST 2,,3,BASELINE,2014-07-01,1
739,CDISCPILOT01,TR,01-701-1034,43,TARGET,R2-A1,R2-T05,DIAMETER,Diameter,10,mm,10,10,mm,,,CT SCAN,INDEPENDENT ASSESSOR,RADIOLOGIST 2,,3,BASELINE,2014-07-01,1
740,CDISCPILOT01,TR,01-701-1034,44,TARGET,R2-A1,R2-T05,LDIAM,Longest Diameter,10,mm,10,10,mm,,,CT SCAN,INDEPENDENT ASSESSOR,RADIOLOGIST 2,,3,BASELINE,2014-07-01,1
741,CDISCPILOT01,TR,01-701-1034,45,TARGET,R2-A1,R2-T05,LPERP,Longest Perpendicular,9,mm,9,9,mm,,,CT SCAN,INDEPENDENT ASSESSOR,RADIOLOGIST 2,,3,BASELINE,2014-07-01,1
742,CDISCPILOT01,TR,01-701-1034,46,TARGET,A1,T01,DIAMETER,Diameter,14,mm,14,14,mm,,,CT SCAN,INVESTIGATOR,,,3,BASELINE,2014-07-01,1
743,CDISCPILOT01,TR,01-701-1034,47,TARGET,A1,T01,LDIAM,Longest Diameter,14,mm,14,14,mm,,,CT SCAN,INVESTIGATOR,,,3,BASELINE,2014-07-01,1
744,CDISCPILOT01,TR,01-701-1034,48,TARGET,A1,T01,LPERP,Longest Perpendicular,12.6,mm,12.6,12.6,mm,,,CT SCAN,INVESTIGATOR,,,3,BASELINE,2014-07-01,1
745,CDISCPILOT01,TR,01-701-1034,49,TARGET,A1,T02,DIAMETER,Diameter,8,mm,8,8,mm,,,CT SCAN,INVESTIGATOR,,,3,BASELINE,2014-07-01,1
746,CDISCPILOT01,TR,01-701-1034,50,TARGET,A1,T02,LDIAM,Longest Diameter,8,mm,8,8,mm,,,CT SCAN,INVESTIGATOR,,,3,BASELINE,2014-07-01,1
747,CDISCPILOT01,TR,01-701-1034,51,TARGET,A1,T02,LPERP,Longest Perpendicular,7.2,mm,7.2,7.2,mm,,,CT SCAN,INVESTIGATOR,,,3,BASELINE,2014-07-01,1
748,CDISCPILOT01,TR,01-701-1034,52,TARGET,A1,T03,DIAMETER,Diameter,9,mm,9,9,mm,,,CT SCAN,INVESTIGATOR,,,3,BASELINE,2014-07-01,1
749,CDISCPILOT01,TR,01-701-1034,53,TARGET,A1,T03,LDIAM,Longest Diameter,9.9,mm,9.9,9.9,mm,,,CT SCAN,INVESTIGATOR,,,3,BASELINE,2014-07-01,1
750,CDISCPILOT01,TR,01-701-1034,54,TARGET,A1,T03,LPERP,Longest Perpendicular,9,mm,9,9,mm,,,CT SCAN,INVESTIGATOR,,,3,BASELINE,2014-07-01,1
751,CDISCPILOT01,TR,01-701-1034,55,TARGET,A1,T04,DIAMETER,Diameter,10,mm,10,10,mm,,,CT SCAN,INVESTIGATOR,,,3,BASELINE,2014-07-01,1
752,CDISCPILOT01,TR,01-701-1034,56,TARGET,A1,T04,LDIAM,Longest Diameter,10,mm,10,10,mm,,,CT SCAN,INVESTIGATOR,,,3,BASELINE,2014-07-01,1
753,CDISCPILOT01,TR,01-701-1034,57,TARGET,A1,T04,LPERP,Longest Perpendicular,9,mm,9,9,mm,,,CT SCAN,INVESTIGATOR,,,3,BASELINE,2014-07-01,1
754,CDISCPILOT01,TR,01-701-1034,58,TARGET,A1,T05,DIAMETER,Diameter,12,mm,12,12,mm,,,CT SCAN,INVESTIGATOR,,,3,BASELINE,2014-07-01,1
755,CDISCPILOT01,TR,01-701-1034,59,TARGET,A1,T05,LDIAM,Longest Diameter,12,mm,12,12,mm,,,CT SCAN,INVESTIGATOR,,,3,BASELINE,2014-07-01,1
756,CDISCPILOT01,TR,01-701-1034,60,TARGET,A1,T05,LPERP,Longest Perpendicular,10.8,mm,10.8,10.8,mm,,,CT SCAN,INVESTIGATOR,,,3,BASELINE,2014-07-01,1
757,CDISCPILOT01,TR,01-701-1034,61,TARGET,R1-A1,,SUMDIAM,Sum of Diameter,57,mm,57,57,mm,,,CT SCAN,INDEPENDENT ASSESSOR,RADIOLOGIST 1,Y,3,BASELINE,2014-07-01,1
758,CDISCPILOT01,TR,01-701-1034,62,TARGET,R2-A1,,SUMDIAM,Sum of Diameter,43,mm,43,43,mm,,,CT SCAN,INDEPENDENT ASSESSOR,RADIOLOGIST 2,,3,BASELINE,2014-07-01,1
759,CDISCPILOT01,TR,01-701-1034,63,TARGET,A1,,SUMDIAM,Sum of Diameter,53,mm,53,53,mm,,,CT SCAN,INVESTIGATOR,,,3,BASELINE,2014-07-01,1
760,CDISCPILOT01,TR,01-701-1034,64,NON-TARGET,A2,NT01,TUMSTATE,Tumor State,ABSENT,,ABSENT,,,,,CT SCAN,INVESTIGATOR,,,7,WEEK 6,2014-08-11,42
761,CDISCPILOT01,TR,01-701-1034,65,NON-TARGET,A2,NT02,TUMSTATE,Tumor State,PRESENT,,PRESENT,,,,,CT SCAN,INVESTIGATOR,,,7,WEEK 6,2014-08-11,42
762,CDISCPILOT01,TR,01-701-1034,66,NON-TARGET,A2,NT03,TUMSTATE,Tumor State,ABSENT,,ABSENT,,,,,CT SCAN,INVESTIGATOR,,,7,WEEK 6,2014-08-11,42
763,CDISCPILOT01,TR,01-701-1034,67,NON-TARGET,A2,NT04,TUMSTATE,Tumor State,ABSENT,,ABSENT,,,,,CT SCAN,INVESTIGATOR,,,7,WEEK 6,2014-08-11,42
764,CDISCPILOT01,TR,01-701-1034,68,NON-TARGET,A2,NT05,TUMSTATE,Tumor State,UNEQUIVOCAL,,UNEQUIVOCAL,,,,,CT SCAN,INVESTIGATOR,,,7,WEEK 6,2014-08-11,42
765,CDISCPILOT01,TR,01-701-1034,69,NON-TARGET,R1-A2,R1-NT01,TUMSTATE,Tumor State,ABSENT,,ABSENT,,,,,CT SCAN,INDEPENDENT ASSESSOR,RADIOLOGIST 1,Y,7,WEEK 6,2014-08-11,42
766,CDISCPILOT01,TR,01-701-1034,70,NON-TARGET,R1-A2,R1-NT02,TUMSTATE,Tumor State,UNEQUIVOCAL,,UNEQUIVOCAL,,,,,CT SCAN,INDEPENDENT ASSESSOR,RADIOLOGIST 1,Y,7,WEEK 6,2014-08-11,42
767,CDISCPILOT01,TR,01-701-1034,71,NON-TARGET,R1-A2,R1-NT03,TUMSTATE,Tumor State,UNEQUIVOCAL,,UNEQUIVOCAL,,,,,CT SCAN,INDEPENDENT ASSESSOR,RADIOLOGIST 1,Y,7,WEEK 6,2014-08-11,42
768,CDISCPILOT01,TR,01-701-1034,72,NON-TARGET,R1-A2,R1-NT04,TUMSTATE,Tumor State,PRESENT,,PRESENT,,,,,CT SCAN,INDEPENDENT ASSESSOR,RADIOLOGIST 1,Y,7,WEEK 6,2014-08-11,42
769,CDISCPILOT01,TR,01-701-1034,73,NON-TARGET,R1-A2,R1-NT05,TUMSTATE,Tumor State,ABSENT,,ABSENT,,,,,CT SCAN,INDEPENDENT ASSESSOR,RADIOLOGIST 1,Y,7,WEEK 6,2014-08-11,42
770,CDISCPILOT01,TR,01-701-1034,74,NON-TARGET,R2-A2,R2-NT01,TUMSTATE,Tumor State,ABSENT,,ABSENT,,,,,CT SCAN,INDEPENDENT ASSESSOR,RADIOLOGIST 2,,7,WEEK 6,2014-08-11,42
771,CDISCPILOT01,TR,01-701-1034,75,NON-TARGET,R2-A2,R2-NT02,TUMSTATE,Tumor State,,,,,,NOT DONE,NOT ASSESSABLE: Image obscured,CT SCAN,INDEPENDENT ASSESSOR,RADIOLOGIST 2,,7,WEEK 6,2014-08-11,42
772,CDISCPILOT01,TR,01-701-1034,76,NON-TARGET,R2-A2,R2-NT03,TUMSTATE,Tumor State,UNEQUIVOCAL,,UNEQUIVOCAL,,,,,CT SCAN,INDEPENDENT ASSESSOR,RADIOLOGIST 2,,7,WEEK 6,2014-08-11,42
773,CDISCPILOT01,TR,01-701-1034,77,NON-TARGET,R2-A2,R2-NT04,TUMSTATE,Tumor State,PRESENT,,PRESENT,,,,,CT SCAN,INDEPENDENT ASSESSOR,RADIOLOGIST 2,,7,WEEK 6,2014-08-11,42
774,CDISCPILOT01,TR,01-701-1034,78,NON-TARGET,R2-A2,R2-NT05,TUMSTATE,Tumor State,PRESENT,,PRESENT,,,,,CT SCAN,INDEPENDENT ASSESSOR,RADIOLOGIST 2,,7,WEEK 6,2014-08-11,42
775,CDISCPILOT01,TR,01-701-1034,79,TARGET,R1-A2,R1-T01,DIAMETER,Diameter,15,mm,15,15,mm,,,CT SCAN,INDEPENDENT ASSESSOR,RADIOLOGIST 1,Y,7,WEEK 6,2014-08-11,42
776,CDISCPILOT01,TR,01-701-1034,80,TARGET,R1-A2,R1-T01,LDIAM,Longest Diameter,16.5,mm,16.5,16.5,mm,,,CT SCAN,INDEPENDENT ASSESSOR,RADIOLOGIST 1,Y,7,WEEK 6,2014-08-11,42
777,CDISCPILOT01,TR,01-701-1034,81,TARGET,R1-A2,R1-T01,LPERP,Longest Perpendicular,15,mm,15,15,mm,,,CT SCAN,INDEPENDENT ASSESSOR,RADIOLOGIST 1,Y,7,WEEK 6,2014-08-11,42
778,CDISCPILOT01,TR,01-701-1034,82,TARGET,R1-A2,R1-T02,DIAMETER,Diameter,18,mm,18,18,mm,,,CT SCAN,INDEPENDENT ASSESSOR,RADIOLOGIST 1,Y,7,WEEK 6,2014-08-11,42
779,CDISCPILOT01,TR,01-701-1034,83,TARGET,R1-A2,R1-T02,LDIAM,Longest Diameter,18,mm,18,18,mm,,,CT SCAN,INDEPENDENT ASSESSOR,RADIOLOGIST 1,Y,7,WEEK 6,2014-08-11,42
780,CDISCPILOT01,TR,01-701-1034,84,TARGET,R1-A2,R1-T02,LPERP,Longest Perpendicular,16.2,mm,16.2,16.2,mm,,,CT SCAN,INDEPENDENT ASSESSOR,RADIOLOGIST 1,Y,7,WEEK 6,2014-08-11,42
781,CDISCPILOT01,TR,01-701-1034,85,TARGET,R1-A2,R1-T03,DIAMETER,Diameter,13,mm,13,13,mm,,,CT SCAN,INDEPENDENT ASSESSOR,RADIOLOGIST 1,Y,7,WEEK 6,2014-08-11,42
782,CDISCPILOT01,TR,01-701-1034,86,TARGET,R1-A2,R1-T03,LDIAM,Longest Diameter,13,mm,13,13,mm,,,CT SCAN,INDEPENDENT ASSESSOR,RADIOLOGIST 1,Y,7,WEEK 6,2014-08-11,42
783,CDISCPILOT01,TR,01-701-1034,87,TARGET,R1-A2,R1-T03,LPERP,Longest Perpendicular,11.7,mm,11.7,11.700000000000001,mm,,,CT SCAN,INDEPENDENT ASSESSOR,RADIOLOGIST 1,Y,7,WEEK 6,2014-08-11,42
784,CDISCPILOT01,TR,01-701-1034,88,TARGET,R1-A2,R1-T04,DIAMETER,Diameter,15,mm,15,15,mm,,,CT SCAN,INDEPENDENT ASSESSOR,RADIOLOGIST 1,Y,7,WEEK 6,2014-08-11,42
785,CDISCPILOT01,TR,01-701-1034,89,TARGET,R1-A2,R1-T04,LDIAM,Longest Diameter,15,mm,15,15,mm,,,CT SCAN,INDEPENDENT ASSESSOR,RADIOLOGIST 1,Y,7,WEEK 6,2014-08-11,42
786,CDISCPILOT01,TR,01-701-1034,90,TARGET,R1-A2,R1-T04,LPERP,Longest Perpendicular,13.5,mm,13.5,13.5,mm,,,CT SCAN,INDEPENDENT ASSESSOR,RADIOLOGIST 1,Y,7,WEEK 6,2014-08-11,42
787,CDISCPILOT01,TR,01-701-1034,91,TARGET,R1-A2,R1-T05,DIAMETER,Diameter,10,mm,10,10,mm,,,CT SCAN,INDEPENDENT ASSESSOR,RADIOLOGIST 1,Y,7,WEEK 6,2014-08-11,42
788,CDISCPILOT01,TR,01-701-1034,92,TARGET,R1-A2,R1-T05,LDIAM,Longest Diameter,10,mm,10,10,mm,,,CT SCAN,INDEPENDENT ASSESSOR,RADIOLOGIST 1,Y,7,WEEK 6,2014-08-11,42
789,CDISCPILOT01,TR,01-701-1034,93,TARGET,R1-A2,R1-T05,LPERP,Longest Perpendicular,9,mm,9,9,mm,,,CT SCAN,INDEPENDENT ASSESSOR,RADIOLOGIST 1,Y,7,WEEK 6,2014-08-11,42
790,CDISCPILOT01,TR,01-701-1034,94,TARGET,R2-A2,R2-T01,DIAMETER,Diameter,12,mm,12,12,mm,,,CT SCAN,INDEPENDENT ASSESSOR,RADIOLOGIST 2,,7,WEEK 6,2014-08-11,42
791,CDISCPILOT01,TR,01-701-1034,95,TARGET,R2-A2,R2-T01,LDIAM,Longest Diameter,12,mm,12,12,mm,,,CT SCAN,INDEPENDENT ASSESSOR,RADIOLOGIST 2,,7,WEEK 6,2014-08-11,42
792,CDISCPILOT01,TR,01-701-1034,96,TARGET,R2-A2,R2-T01,LPERP,Longest Perpendicular,10.8,mm,10.8,10.8,mm,,,CT SCAN,INDEPENDENT ASSESSOR,RADIOLOGIST 2,,7,WEEK 6,2014-08-11,42
793,CDISCPILOT01,TR,01-701-1034,97,TARGET,R2-A2,R2-T02,DIAMETER,Diameter,10,mm,10,10,mm,,,CT SCAN,INDEPENDENT ASSESSOR,RADIOLOGIST 2,,7,WEEK 6,2014-08-11,42
794,CDISCPILOT01,TR,01-701-1034,98,TARGET,R2-A2,R2-T02,LDIAM,Longest Diameter,11,mm,11,11,mm,,,CT SCAN,INDEPENDENT ASSESSOR,RADIOLOGIST 2,,7,WEEK 6,2014-08-11,42
795,CDISCPILOT01,TR,01-701-1034,99,TARGET,R2-A2,R2-T02,LPERP,Longest Perpendicular,10,mm,10,10,mm,,,CT SCAN,INDEPENDENT ASSESSOR,RADIOLOGIST 2,,7,WEEK 6,2014-08-11,42
796,CDISCPILOT01,TR,01-701-1034,100,TARGET,R2-A2,R2-T03,DIAMETER,Diameter,14,mm,14,14,mm,,,CT SCAN,INDEPENDENT ASSESSOR,RADIOLOGIST 2,,7,WEEK 6,2014-08-11,42
797,CDISCPILOT01,TR,01-701-1034,101,TARGET,R2-A2,R2-T03,LDIAM,Longest Diameter,14,mm,14,14,mm,,,CT SCAN,INDEPENDENT ASSESSOR,RADIOLOGIST 2,,7,WEEK 6,2014-08-11,42
798,CDISCPILOT01,TR,01-701-1034,102,TARGET,R2-A2,R2-T03,LPERP,Longest Perpendicular,12.6,mm,12.6,12.6,mm,,,CT SCAN,INDEPENDENT ASSESSOR,RADIOLOGIST 2,,7,WEEK 6,2014-08-11,42
799,CDISCPILOT01,TR,01-701-1034,103,TARGET,R2-A2,R2-T04,DIAMETER,Diameter,13,mm,13,13,mm,,,CT SCAN,INDEPENDENT ASSESSOR,RADIOLOGIST 2,,7,WEEK 6,2014-08-11,42
800,CDISCPILOT01,TR,01-701-1034,104,TARGET,R2-A2,R2-T04,LDIAM,Longest Diameter,13,mm,13,13,mm,,,CT SCAN,INDEPENDENT ASSESSOR,RADIOLOGIST 2,,7,WEEK 6,2014-08-11,42
801,CDISCPILOT01,TR,01-701-1034,105,TARGET,R2-A2,R2-T04,LPERP,Longest Perpendicular,11.7,mm,11.7,11.700000000000001,mm,,,CT SCAN,INDEPENDENT ASSESSOR,RADIOLOGIST 2,,7,WEEK 6,2014-08-11,42
802,CDISCPILOT01,TR,01-701-1034,106,TARGET,R2-A2,R2-T05,DIAMETER,Diameter,14,mm,14,14,mm,,,CT SCAN,INDEPENDENT ASSESSOR,RADIOLOGIST 2,,7,WEEK 6,2014-08-11,42
803,CDISCPILOT01,TR,01-701-1034,107,TARGET,R2-A2,R2-T05,LDIAM,Longest Diameter,14,mm,14,14,mm,,,CT SCAN,INDEPENDENT ASSESSOR,RADIOLOGIST 2,,7,WEEK 6,2014-08-11,42
804,CDISCPILOT01,TR,01-701-1034,108,TARGET,R2-A2,R2-T05,LPERP,Longest Perpendicular,12.6,mm,12.6,12.6,mm,,,CT SCAN,INDEPENDENT ASSESSOR,RADIOLOGIST 2,,7,WEEK 6,2014-08-11,42
805,CDISCPILOT01,TR,01-701-1034,109,TARGET,A2,T01,DIAMETER,Diameter,10,mm,10,10,mm,,,CT SCAN,INVESTIGATOR,,,7,WEEK 6,2014-08-11,42
806,CDISCPILOT01,TR,01-701-1034,110,TARGET,A2,T01,LDIAM,Longest Diameter,11,mm,11,11,mm,,,CT SCAN,INVESTIGATOR,,,7,WEEK 6,2014-08-11,42
807,CDISCPILOT01,TR,01-701-1034,111,TARGET,A2,T01,LPERP,Longest Perpendicular,10,mm,10,10,mm,,,CT SCAN,INVESTIGATOR,,,7,WEEK 6,2014-08-11,42
808,CDISCPILOT01,TR,01-701-1034,112,TARGET,A2,T02,DIAMETER,Diameter,12,mm,12,12,mm,,,CT SCAN,INVESTIGATOR,,,7,WEEK 6,2014-08-11,42
809,CDISCPILOT01,TR,01-701-1034,113,TARGET,A2,T02,LDIAM,Longest Diameter,12,mm,12,12,mm,,,CT SCAN,INVESTIGATOR,,,7,WEEK 6,2014-08-11,42
810,CDISCPILOT01,TR,01-701-1034,114,TARGET,A2,T02,LPERP,Longest Perpendicular,10.8,mm,10.8,10.8,mm,,,CT SCAN,INVESTIGATOR,,,7,WEEK 6,2014-08-11,42
811,CDISCPILOT01,TR,01-701-1034,115,TARGET,A2,T03,DIAMETER,Diameter,10,mm,10,10,mm,,,CT SCAN,INVESTIGATOR,,,7,WEEK 6,2014-08-11,42
812,CDISCPILOT01,TR,01-701-1034,116,TARGET,A2,T03,LDIAM,Longest Diameter,10,mm,10,10,mm,,,CT SCAN,INVESTIGATOR,,,7,WEEK 6,2014-08-11,42
813,CDISCPILOT01,TR,01-701-1034,117,TARGET,A2,T03,LPERP,Longest Perpendicular,9,mm,9,9,mm,,,CT SCAN,INVESTIGATOR,,,7,WEEK 6,2014-08-11,42
814,CDISCPILOT01,TR,01-701-1034,118,TARGET,A2,T04,DIAMETER,Diameter,12,mm,12,12,mm,,,CT SCAN,INVESTIGATOR,,,7,WEEK 6,2014-08-11,42
815,CDISCPILOT01,TR,01-701-1034,119,TARGET,A2,T04,LDIAM,Longest Diameter,12,mm,12,12,mm,,,CT SCAN,INVESTIGATOR,,,7,WEEK 6,2014-08-11,42
816,CDISCPILOT01,TR,01-701-1034,120,TARGET,A2,T04,LPERP,Longest Perpendicular,10.8,mm,10.8,10.8,mm,,,CT SCAN,INVESTIGATOR,,,7,WEEK 6,2014-08-11,42
817,CDISCPILOT01,TR,01-701-1034,121,TARGET,A2,T05,DIAMETER,Diameter,10,mm,10,10,mm,,,CT SCAN,INVESTIGATOR,,,7,WEEK 6,2014-08-11,42
818,CDISCPILOT01,TR,01-701-1034,122,TARGET,A2,T05,LDIAM,Longest Diameter,10,mm,10,10,mm,,,CT SCAN,INVESTIGATOR,,,7,WEEK 6,2014-08-11,42
819,CDISCPILOT01,TR,01-701-1034,123,TARGET,A2,T05,LPERP,Longest Perpendicular,9,mm,9,9,mm,,,CT SCAN,INVESTIGATOR,,,7,WEEK 6,2014-08-11,42
820,CDISCPILOT01,TR,01-701-1034,124,TARGET,R1-A2,,SUMDIAM,Sum of Diameter,71,mm,71,71,mm,,,CT SCAN,INDEPENDENT ASSESSOR,RADIOLOGIST 1,Y,7,WEEK 6,2014-08-11,42
821,CDISCPILOT01,TR,01-701-1034,125,TARGET,R2-A2,,SUMDIAM,Sum of Diameter,63,mm,63,63,mm,,,CT SCAN,INDEPENDENT ASSESSOR,RADIOLOGIST 2,,7,WEEK 6,2014-08-11,42
822,CDISCPILOT01,TR,01-701-1034,126,TARGET,A2,,SUMDIAM,Sum of Diameter,54,mm,54,54,mm,,,CT SCAN,INVESTIGATOR,,,7,WEEK 6,2014-08-11,42
823,CDISCPILOT01,TR,01-701-1034,127,NON-TARGET,A3,NT01,TUMSTATE,Tumor State,ABSENT,,ABSENT,,,,,CT SCAN,INVESTIGATOR,,,9,WEEK 12,2014-09-25,84
824,CDISCPILOT01,TR,01-701-1034,128,NON-TARGET,A3,NT02,TUMSTATE,Tumor State,PRESENT,,PRESENT,,,,,CT SCAN,INVESTIGATOR,,,9,WEEK 12,2014-09-25,84
825,CDISCPILOT01,TR,01-701-1034,129,NON-TARGET,A3,NT03,TUMSTATE,Tumor State,PRESENT,,PRESENT,,,,,CT SCAN,INVESTIGATOR,,,9,WEEK 12,2014-09-25,84
826,CDISCPILOT01,TR,01-701-1034,130,NON-TARGET,A3,NT04,TUMSTATE,Tumor State,UNEQUIVOCAL,,UNEQUIVOCAL,,,,,CT SCAN,INVESTIGATOR,,,9,WEEK 12,2014-09-25,84
827,CDISCPILOT01,TR,01-701-1034,131,NON-TARGET,A3,NT05,TUMSTATE,Tumor State,UNEQUIVOCAL,,UNEQUIVOCAL,,,,,CT SCAN,INVESTIGATOR,,,9,WEEK 12,2014-09-25,84
828,CDISCPILOT01,TR,01-701-1034,132,NON-TARGET,R1-A3,R1-NT01,TUMSTATE,Tumor State,PRESENT,,PRESENT,,,,,CT SCAN,INDEPENDENT ASSESSOR,RADIOLOGIST 1,Y,9,WEEK 12,2014-09-25,84
829,CDISCPILOT01,TR,01-701-1034,133,NON-TARGET,R1-A3,R1-NT02,TUMSTATE,Tumor State,ABSENT,,ABSENT,,,,,CT SCAN,INDEPENDENT ASSESSOR,RADIOLOGIST 1,Y,9,WEEK 12,2014-09-25,84
830,CDISCPILOT01,TR,01-701-1034,134,NON-TARGET,R1-A3,R1-NT03,TUMSTATE,Tumor State,ABSENT,,ABSENT,,,,,CT SCAN,INDEPENDENT ASSESSOR,RADIOLOGIST 1,Y,9,WEEK 12,2014-09-25,84
831,CDISCPILOT01,TR,01-701-1034,135,NON-TARGET,R1-A3,R1-NT04,TUMSTATE,Tumor State,PRESENT,,PRESENT,,,,,CT SCAN,INDEPENDENT ASSESSOR,RADIOLOGIST 1,Y,9,WEEK 12,2014-09-25,84
832,CDISCPILOT01,TR,01-701-1034,136,NON-TARGET,R1-A3,R1-NT05,TUMSTATE,Tumor State,PRESENT,,PRESENT,,,,,CT SCAN,INDEPENDENT ASSESSOR,RADIOLOGIST 1,Y,9,WEEK 12,2014-09-25,84
833,CDISCPILOT01,TR,01-701-1034,137,NON-TARGET,R2-A3,R2-NT01,TUMSTATE,Tumor State,PRESENT,,PRESENT,,,,,CT SCAN,INDEPENDENT ASSESSOR,RADIOLOGIST 2,,9,WEEK 12,2014-09-25,84
834,CDISCPILOT01,TR,01-701-1034,138,NON-TARGET,R2-A3,R2-NT02,TUMSTATE,Tumor State,ABSENT,,ABSENT,,,,,CT SCAN,INDEPENDENT ASSESSOR,RADIOLOGIST 2,,9,WEEK 12,2014-09-25,84
835,CDISCPILOT01,TR,01-701-1034,139,NON-TARGET,R2-A3,R2-NT03,TUMSTATE,Tumor State,PRESENT,,PRESENT,,,,,CT SCAN,INDEPENDENT ASSESSOR,RADIOLOGIST 2,,9,WEEK 12,2014-09-25,84
836,CDISCPILOT01,TR,01-701-1034,140,NON-TARGET,R2-A3,R2-NT04,TUMSTATE,Tumor State,PRESENT,,PRESENT,,,,,CT SCAN,INDEPENDENT ASSESSOR,RADIOLOGIST 2,,9,WEEK 12,2014-09-25,84
837,CDISCPILOT01,TR,01-701-1034,141,NON-TARGET,R2-A3,R2-NT05,TUMSTATE,Tumor State,ABSENT,,ABSENT,,,,,CT SCAN,INDEPENDENT ASSESSOR,RADIOLOGIST 2,,9,WEEK 12,2014-09-25,84
838,CDISCPILOT01,TR,01-701-1034,142,TARGET,R1-A3,R1-T01,DIAMETER,Diameter,13,mm,13,13,mm,,,CT SCAN,INDEPENDENT ASSESSOR,RADIOLOGIST 1,Y,9,WEEK 12,2014-09-25,84
839,CDISCPILOT01,TR,01-701-1034,143,TARGET,R1-A3,R1-T01,LDIAM,Longest Diameter,14.3,mm,14.3,14.3,mm,,,CT SCAN,INDEPENDENT ASSESSOR,RADIOLOGIST 1,Y,9,WEEK 12,2014-09-25,84
840,CDISCPILOT01,TR,01-701-1034,144,TARGET,R1-A3,R1-T01,LPERP,Longest Perpendicular,13,mm,13,13,mm,,,CT SCAN,INDEPENDENT ASSESSOR,RADIOLOGIST 1,Y,9,WEEK 12,2014-09-25,84
841,CDISCPILOT01,TR,01-701-1034,145,TARGET,R1-A3,R1-T02,DIAMETER,Diameter,11,mm,11,11,mm,,,CT SCAN,INDEPENDENT ASSESSOR,RADIOLOGIST 1,Y,9,WEEK 12,2014-09-25,84
842,CDISCPILOT01,TR,01-701-1034,146,TARGET,R1-A3,R1-T02,LDIAM,Longest Diameter,11,mm,11,11,mm,,,CT SCAN,INDEPENDENT ASSESSOR,RADIOLOGIST 1,Y,9,WEEK 12,2014-09-25,84
843,CDISCPILOT01,TR,01-701-1034,147,TARGET,R1-A3,R1-T02,LPERP,Longest Perpendicular,9.9,mm,9.9,9.9,mm,,,CT SCAN,INDEPENDENT ASSESSOR,RADIOLOGIST 1,Y,9,WEEK 12,2014-09-25,84
844,CDISCPILOT01,TR,01-701-1034,148,TARGET,R1-A3,R1-T03,DIAMETER,Diameter,13,mm,13,13,mm,,,CT SCAN,INDEPENDENT ASSESSOR,RADIOLOGIST 1,Y,9,WEEK 12,2014-09-25,84
845,CDISCPILOT01,TR,01-701-1034,149,TARGET,R1-A3,R1-T03,LDIAM,Longest Diameter,13,mm,13,13,mm,,,CT SCAN,INDEPENDENT ASSESSOR,RADIOLOGIST 1,Y,9,WEEK 12,2014-09-25,84
846,CDISCPILOT01,TR,01-701-1034,150,TARGET,R1-A3,R1-T03,LPERP,Longest Perpendicular,11.7,mm,11.7,11.700000000000001,mm,,,CT SCAN,INDEPENDENT ASSESSOR,RADIOLOGIST 1,Y,9,WEEK 12,2014-09-25,84
847,CDISCPILOT01,TR,01-701-1034,151,TARGET,R1-A3,R1-T04,DIAMETER,Diameter,13,mm,13,13,mm,,,CT SCAN,INDEPENDENT ASSESSOR,RADIOLOGIST 1,Y,9,WEEK 12,2014-09-25,84
848,CDISCPILOT01,TR,01-701-1034,152,TARGET,R1-A3,R1-T04,LDIAM,Longest Diameter,13,mm,13,13,mm,,,CT SCAN,INDEPENDENT ASSESSOR,RADIOLOGIST 1,Y,9,WEEK 12,2014-09-25,84
849,CDISCPILOT01,TR,01-701-1034,153,TARGET,R1-A3,R1-T04,LPERP,Longest Perpendicular,11.7,mm,11.7,11.700000000000001,mm,,,CT SCAN,INDEPENDENT ASSESSOR,RADIOLOGIST 1,Y,9,WEEK 12,2014-09-25,84
850,CDISCPILOT01,TR,01-701-1034,154,TARGET,R1-A3,R1-T05,DIAMETER,Diameter,12,mm,12,12,mm,,,CT SCAN,INDEPENDENT ASSESSOR,RADIOLOGIST 1,Y,9,WEEK 12,2014-09-25,84
851,CDISCPILOT01,TR,01-701-1034,155,TARGET,R1-A3,R1-T05,LDIAM,Longest Diameter,12,mm,12,12,mm,,,CT SCAN,INDEPENDENT ASSESSOR,RADIOLOGIST 1,Y,9,WEEK 12,2014-09-25,84
852,CDISCPILOT01,TR,01-701-1034,156,TARGET,R1-A3,R1-T05,LPERP,Longest Perpendicular,10.8,mm,10.8,10.8,mm,,,CT SCAN,INDEPENDENT ASSESSOR,RADIOLOGIST 1,Y,9,WEEK 12,2014-09-25,84
853,CDISCPILOT01,TR,01-701-1034,157,TARGET,R2-A3,R2-T01,DIAMETER,Diameter,15,mm,15,15,mm,,,CT SCAN,INDEPENDENT ASSESSOR,RADIOLOGIST 2,,9,WEEK 12,2014-09-25,84
854,CDISCPILOT01,TR,01-701-1034,158,TARGET,R2-A3,R2-T01,LDIAM,Longest Diameter,15,mm,15,15,mm,,,CT SCAN,INDEPENDENT ASSESSOR,RADIOLOGIST 2,,9,WEEK 12,2014-09-25,84
855,CDISCPILOT01,TR,01-701-1034,159,TARGET,R2-A3,R2-T01,LPERP,Longest Perpendicular,13.5,mm,13.5,13.5,mm,,,CT SCAN,INDEPENDENT ASSESSOR,RADIOLOGIST 2,,9,WEEK 12,2014-09-25,84
856,CDISCPILOT01,TR,01-701-1034,160,TARGET,R2-A3,R2-T02,DIAMETER,Diameter,16,mm,16,16,mm,,,CT SCAN,INDEPENDENT ASSESSOR,RADIOLOGIST 2,,9,WEEK 12,2014-09-25,84
857,CDISCPILOT01,TR,01-701-1034,161,TARGET,R2-A3,R2-T02,LDIAM,Longest Diameter,16,mm,16,16,mm,,,CT SCAN,INDEPENDENT ASSESSOR,RADIOLOGIST 2,,9,WEEK 12,2014-09-25,84
858,CDISCPILOT01,TR,01-701-1034,162,TARGET,R2-A3,R2-T02,LPERP,Longest Perpendicular,14.4,mm,14.4,14.4,mm,,,CT SCAN,INDEPENDENT ASSESSOR,RADIOLOGIST 2,,9,WEEK 12,2014-09-25,84
859,CDISCPILOT01,TR,01-701-1034,163,TARGET,R2-A3,R2-T03,DIAMETER,Diameter,15,mm,15,15,mm,,,CT SCAN,INDEPENDENT ASSESSOR,RADIOLOGIST 2,,9,WEEK 12,2014-09-25,84
860,CDISCPILOT01,TR,01-701-1034,164,TARGET,R2-A3,R2-T03,LDIAM,Longest Diameter,16.5,mm,16.5,16.5,mm,,,CT SCAN,INDEPENDENT ASSESSOR,RADIOLOGIST 2,,9,WEEK 12,2014-09-25,84
861,CDISCPILOT01,TR,01-701-1034,165,TARGET,R2-A3,R2-T03,LPERP,Longest Perpendicular,15,mm,15,15,mm,,,CT SCAN,INDEPENDENT ASSESSOR,RADIOLOGIST 2,,9,WEEK 12,2014-09-25,84
862,CDISCPILOT01,TR,01-701-1034,166,TARGET,R2-A3,R2-T04,DIAMETER,Diameter,10,mm,10,10,mm,,,CT SCAN,INDEPENDENT ASSESSOR,RADIOLOGIST 2,,9,WEEK 12,2014-09-25,84
863,CDISCPILOT01,TR,01-701-1034,167,TARGET,R2-A3,R2-T04,LDIAM,Longest Diameter,10,mm,10,10,mm,,,CT SCAN,INDEPENDENT ASSESSOR,RADIOLOGIST 2,,9,WEEK 12,2014-09-25,84
864,CDISCPILOT01,TR,01-701-1034,168,TARGET,R2-A3,R2-T04,LPERP,Longest Perpendicular,9,mm,9,9,mm,,,CT SCAN,INDEPENDENT ASSESSOR,RADIOLOGIST 2,,9,WEEK 12,2014-09-25,84
865,CDISCPILOT01,TR,01-701-1034,169,TARGET,R2-A3,R2-T05,DIAMETER,Diameter,11,mm,11,11,mm,,,CT SCAN,INDEPENDENT ASSESSOR,RADIOLOGIST 2,,9,WEEK 12,2014-09-25,84
866,CDISCPILOT01,TR,01-701-1034,170,TARGET,R2-A3,R2-T05,LDIAM,Longest Diameter,11,mm,11,11,mm,,,CT SCAN,INDEPENDENT ASSESSOR,RADIOLOGIST 2,,9,WEEK 12,2014-09-25,84
867,CDISCPILOT01,TR,01-701-1034,171,TARGET,R2-A3,R2-T05,LPERP,Longest Perpendicular,9.9,mm,9.9,9.9,mm,,,CT SCAN,INDEPENDENT ASSESSOR,RADIOLOGIST 2,,9,WEEK 12,2014-09-25,84
868,CDISCPILOT01,TR,01-701-1034,172,TARGET,A3,T01,DIAMETER,Diameter,14,mm,14,14,mm,,,CT SCAN,INVESTIGATOR,,,9,WEEK 12,2014-09-25,84
869,CDISCPILOT01,TR,01-701-1034,173,TARGET,A3,T01,LDIAM,Longest Diameter,14,mm,14,14,mm,,,CT SCAN,INVESTIGATOR,,,9,WEEK 12,2014-09-25,84
870,CDISCPILOT01,TR,01-701-1034,174,TARGET,A3,T01,LPERP,Longest Perpendicular,12.6,mm,12.6,12.6,mm,,,CT SCAN,INVESTIGATOR,,,9,WEEK 12,2014-09-25,84
871,CDISCPILOT01,TR,01-701-1034,175,TARGET,A3,T02,DIAMETER,Diameter,15,mm,15,15,mm,,,CT SCAN,INVESTIGATOR,,,9,WEEK 12,2014-09-25,84
872,CDISCPILOT01,TR,01-701-1034,176,TARGET,A3,T02,LDIAM,Longest Diameter,16.5,mm,16.5,16.5,mm,,,CT SCAN,INVESTIGATOR,,,9,WEEK 12,2014-09-25,84
873,CDISCPILOT01,TR,01-701-1034,177,TARGET,A3,T02,LPERP,Longest Perpendicular,15,mm,15,15,mm,,,CT SCAN,INVESTIGATOR,,,9,WEEK 12,2014-09-25,84
874,CDISCPILOT01,TR,01-701-1034,178,TARGET,A3,T03,DIAMETER,Diameter,15,mm,15,15,mm,,,CT SCAN,INVESTIGATOR,,,9,WEEK 12,2014-09-25,84
875,CDISCPILOT01,TR,01-701-1034,179,TARGET,A3,T03,LDIAM,Longest Diameter,15,mm,15,15,mm,,,CT SCAN,INVESTIGATOR,,,9,WEEK 12,2014-09-25,84
876,CDISCPILOT01,TR,01-701-1034,180,TARGET,A3,T03,LPERP,Longest Perpendicular,13.5,mm,13.5,13.5,mm,,,CT SCAN,INVESTIGATOR,,,9,WEEK 12,2014-09-25,84
877,CDISCPILOT01,TR,01-701-1034,181,TARGET,A3,T04,DIAMETER,Diameter,12,mm,12,12,mm,,,CT SCAN,INVESTIGATOR,,,9,WEEK 12,2014-09-25,84
878,CDISCPILOT01,TR,01-701-1034,182,TARGET,A3,T04,LDIAM,Longest Diameter,12,mm,12,12,mm,,,CT SCAN,INVESTIGATOR,,,9,WEEK 12,2014-09-25,84
879,CDISCPILOT01,TR,01-701-1034,183,TARGET,A3,T04,LPERP,Longest Perpendicular,10.8,mm,10.8,10.8,mm,,,CT SCAN,INVESTIGATOR,,,9,WEEK 12,2014-09-25,84
880,CDISCPILOT01,TR,01-701-1034,184,TARGET,A3,T05,DIAMETER,Diameter,11,mm,11,11,mm,,,CT SCAN,INVESTIGATOR,,,9,WEEK 12,2014-09-25,84
881,CDISCPILOT01,TR,01-701-1034,185,TARGET,A3,T05,LDIAM,Longest Diameter,11,mm,11,11,mm,,,CT SCAN,INVESTIGATOR,,,9,WEEK 12,2014-09-25,84
882,CDISCPILOT01,TR,01-701-1034,186,TARGET,A3,T05,LPERP,Longest Perpendicular,9.9,mm,9.9,9.9,mm,,,CT SCAN,INVESTIGATOR,,,9,WEEK 12,2014-09-25,84
883,CDISCPILOT01,TR,01-701-1034,187,TARGET,R1-A3,,SUMDIAM,Sum of Diameter,62,mm,62,62,mm,,,CT SCAN,INDEPENDENT ASSESSOR,RADIOLOGIST 1,Y,9,WEEK 12,2014-09-25,84
884,CDISCPILOT01,TR,01-701-1034,188,TARGET,R2-A3,,SUMDIAM,Sum of Diameter,67,mm,67,67,mm,,,CT SCAN,INDEPENDENT ASSESSOR,RADIOLOGIST 2,,9,WEEK 12,2014-09-25,84
885,CDISCPILOT01,TR,01-701-1034,189,TARGET,A3,,SUMDIAM,Sum of Diameter,67,mm,67,67,mm,,,CT SCAN,INVESTIGATOR,,,9,WEEK 12,2014-09-25,84
886,CDISCPILOT01,TR,01-701-1034,190,NON-TARGET,,NT01,TUMSTATE,Tumor State,PRESENT,,PRESENT,,,,,CT SCAN,INVESTIGATOR,,,10.1,WEEK 18 (T),2014-11-04,126
887,CDISCPILOT01,TR,01-701-1034,191,NON-TARGET,,NT02,TUMSTATE,Tumor State,PRESENT,,PRESENT,,,,,CT SCAN,INVESTIGATOR,,,10.1,WEEK 18 (T),2014-11-04,126
888,CDISCPILOT01,TR,01-701-1034,192,NON-TARGET,,NT03,TUMSTATE,Tumor State,ABSENT,,ABSENT,,,,,CT SCAN,INVESTIGATOR,,,10.1,WEEK 18 (T),2014-11-04,126
889,CDISCPILOT01,TR,01-701-1034,193,NON-TARGET,,NT04,TUMSTATE,Tumor State,PRESENT,,PRESENT,,,,,CT SCAN,INVESTIGATOR,,,10.1,WEEK 18 (T),2014-11-04,126
890,CDISCPILOT01,TR,01-701-1034,194,NON-TARGET,,NT05,TUMSTATE,Tumor State,,,,,,NOT DONE,NOT ASSESSABLE: Image obscured,CT SCAN,INVESTIGATOR,,,10.1,WEEK 18 (T),2014-11-04,126
891,CDISCPILOT01,TR,01-701-1034,195,NON-TARGET,R1-NA,R1-NT01,TUMSTATE,Tumor State,UNEQUIVOCAL,,UNEQUIVOCAL,,,,,CT SCAN,INDEPENDENT ASSESSOR,RADIOLOGIST 1,Y,10.1,WEEK 18 (T),2014-11-04,126
892,CDISCPILOT01,TR,01-701-1034,196,NON-TARGET,R1-NA,R1-NT02,TUMSTATE,Tumor State,PRESENT,,PRESENT,,,,,CT SCAN,INDEPENDENT ASSESSOR,RADIOLOGIST 1,Y,10.1,WEEK 18 (T),2014-11-04,126
893,CDISCPILOT01,TR,01-701-1034,197,NON-TARGET,R1-NA,R1-NT03,TUMSTATE,Tumor State,PRESENT,,PRESENT,,,,,CT SCAN,INDEPENDENT ASSESSOR,RADIOLOGIST 1,Y,10.1,WEEK 18 (T),2014-11-04,126
894,CDISCPILOT01,TR,01-701-1034,198,NON-TARGET,R1-NA,R1-NT04,TUMSTATE,Tumor State,UNEQUIVOCAL,,UNEQUIVOCAL,,,,,CT SCAN,INDEPENDENT ASSESSOR,RADIOLOGIST 1,Y,10.1,WEEK 18 (T),2014-11-04,126
895,CDISCPILOT01,TR,01-701-1034,199,NON-TARGET,R1-NA,R1-NT05,TUMSTATE,Tumor State,ABSENT,,ABSENT,,,,,CT SCAN,INDEPENDENT ASSESSOR,RADIOLOGIST 1,Y,10.1,WEEK 18 (T),2014-11-04,126
896,CDISCPILOT01,TR,01-701-1034,200,NON-TARGET,R2-NA,R2-NT01,TUMSTATE,Tumor State,PRESENT,,PRESENT,,,,,CT SCAN,INDEPENDENT ASSESSOR,RADIOLOGIST 2,,10.1,WEEK 18 (T),2014-11-04,126
897,CDISCPILOT01,TR,01-701-1034,201,NON-TARGET,R2-NA,R2-NT02,TUMSTATE,Tumor State,ABSENT,,ABSENT,,,,,CT SCAN,INDEPENDENT ASSESSOR,RADIOLOGIST 2,,10.1,WEEK 18 (T),2014-11-04,126
898,CDISCPILOT01,TR,01-701-1034,202,NON-TARGET,R2-NA,R2-NT03,TUMSTATE,Tumor State,ABSENT,,ABSENT,,,,,CT SCAN,INDEPENDENT ASSESSOR,RADIOLOGIST 2,,10.1,WEEK 18 (T),2014-11-04,126
899,CDISCPILOT01,TR,01-701-1034,203,NON-TARGET,R2-NA,R2-NT04,TUMSTATE,Tumor State,ABSENT,,ABSENT,,,,,CT SCAN,INDEPENDENT ASSESSOR,RADIOLOGIST 2,,10.1,WEEK 18 (T),2014-11-04,126
900,CDISCPILOT01,TR,01-701-1034,204,NON-TARGET,R2-NA,R2-NT05,TUMSTATE,Tumor State,UNEQUIVOCAL,,UNEQUIVOCAL,,,,,CT SCAN,INDEPENDENT ASSESSOR,RADIOLOGIST 2,,10.1,WEEK 18 (T),2014-11-04,126
901,CDISCPILOT01,TR,01-701-1034,205,TARGET,R1-NA,R1-T01,DIAMETER,Diameter,15,mm,15,15,mm,,,CT SCAN,INDEPENDENT ASSESSOR,RADIOLOGIST 1,Y,10.1,WEEK 18 (T),2014-11-04,126
902,CDISCPILOT01,TR,01-701-1034,206,TARGET,R1-NA,R1-T01,LDIAM,Longest Diameter,16.5,mm,16.5,16.5,mm,,,CT SCAN,INDEPENDENT ASSESSOR,RADIOLOGIST 1,Y,10.1,WEEK 18 (T),2014-11-04,126
903,CDISCPILOT01,TR,01-701-1034,207,TARGET,R1-NA,R1-T01,LPERP,Longest Perpendicular,15,mm,15,15,mm,,,CT SCAN,INDEPENDENT ASSESSOR,RADIOLOGIST 1,Y,10.1,WEEK 18 (T),2014-11-04,126
904,CDISCPILOT01,TR,01-701-1034,208,TARGET,R1-NA,R1-T02,DIAMETER,Diameter,16,mm,16,16,mm,,,CT SCAN,INDEPENDENT ASSESSOR,RADIOLOGIST 1,Y,10.1,WEEK 18 (T),2014-11-04,126
905,CDISCPILOT01,TR,01-701-1034,209,TARGET,R1-NA,R1-T02,LDIAM,Longest Diameter,16,mm,16,16,mm,,,CT SCAN,INDEPENDENT ASSESSOR,RADIOLOGIST 1,Y,10.1,WEEK 18 (T),2014-11-04,126
906,CDISCPILOT01,TR,01-701-1034,210,TARGET,R1-NA,R1-T02,LPERP,Longest Perpendicular,14.4,mm,14.4,14.4,mm,,,CT SCAN,INDEPENDENT ASSESSOR,RADIOLOGIST 1,Y,10.1,WEEK 18 (T),2014-11-04,126
907,CDISCPILOT01,TR,01-701-1034,211,TARGET,R1-NA,R1-T03,DIAMETER,Diameter,16,mm,16,16,mm,,,CT SCAN,INDEPENDENT ASSESSOR,RADIOLOGIST 1,Y,10.1,WEEK 18 (T),2014-11-04,126
908,CDISCPILOT01,TR,01-701-1034,212,TARGET,R1-NA,R1-T03,LDIAM,Longest Diameter,16,mm,16,16,mm,,,CT SCAN,INDEPENDENT ASSESSOR,RADIOLOGIST 1,Y,10.1,WEEK 18 (T),2014-11-04,126
909,CDISCPILOT01,TR,01-701-1034,213,TARGET,R1-NA,R1-T03,LPERP,Longest Perpendicular,14.4,mm,14.4,14.4,mm,,,CT SCAN,INDEPENDENT ASSESSOR,RADIOLOGIST 1,Y,10.1,WEEK 18 (T),2014-11-04,126
910,CDISCPILOT01,TR,01-701-1034,214,TARGET,R1-NA,R1-T04,DIAMETER,Diameter,19,mm,19,19,mm,,,CT SCAN,INDEPENDENT ASSESSOR,RADIOLOGIST 1,Y,10.1,WEEK 18 (T),2014-11-04,126
911,CDISCPILOT01,TR,01-701-1034,215,TARGET,R1-NA,R1-T04,LDIAM,Longest Diameter,19,mm,19,19,mm,,,CT SCAN,INDEPENDENT ASSESSOR,RADIOLOGIST 1,Y,10.1,WEEK 18 (T),2014-11-04,126
912,CDISCPILOT01,TR,01-701-1034,216,TARGET,R1-NA,R1-T04,LPERP,Longest Perpendicular,17.1,mm,17.1,17.1,mm,,,CT SCAN,INDEPENDENT ASSESSOR,RADIOLOGIST 1,Y,10.1,WEEK 18 (T),2014-11-04,126
913,CDISCPILOT01,TR,01-701-1034,217,TARGET,R1-NA,R1-T05,DIAMETER,Diameter,11,mm,11,11,mm,,,CT SCAN,INDEPENDENT ASSESSOR,RADIOLOGIST 1,Y,10.1,WEEK 18 (T),2014-11-04,126
914,CDISCPILOT01,TR,01-701-1034,218,TARGET,R1-NA,R1-T05,LDIAM,Longest Diameter,11,mm,11,11,mm,,,CT SCAN,INDEPENDENT ASSESSOR,RADIOLOGIST 1,Y,10.1,WEEK 18 (T),2014-11-04,126
915,CDISCPILOT01,TR,01-701-1034,219,TARGET,R1-NA,R1-T05,LPERP,Longest Perpendicular,9.9,mm,9.9,9.9,mm,,,CT SCAN,INDEPENDENT ASSESSOR,RADIOLOGIST 1,Y,10.1,WEEK 18 (T),2014-11-04,126
916,CDISCPILOT01,TR,01-701-1034,220,TARGET,R2-NA,R2-T01,DIAMETER,Diameter,19,mm,19,19,mm,,,CT SCAN,INDEPENDENT ASSESSOR,RADIOLOGIST 2,,10.1,WEEK 18 (T),2014-11-04,126
917,CDISCPILOT01,TR,01-701-1034,221,TARGET,R2-NA,R2-T01,LDIAM,Longest Diameter,19,mm,19,19,mm,,,CT SCAN,INDEPENDENT ASSESSOR,RADIOLOGIST 2,,10.1,WEEK 18 (T),2014-11-04,126
918,CDISCPILOT01,TR,01-701-1034,222,TARGET,R2-NA,R2-T01,LPERP,Longest Perpendicular,17.1,mm,17.1,17.1,mm,,,CT SCAN,INDEPENDENT ASSESSOR,RADIOLOGIST 2,,10.1,WEEK 18 (T),2014-11-04,126
919,CDISCPILOT01,TR,01-701-1034,223,TARGET,R2-NA,R2-T02,DIAMETER,Diameter,11,mm,11,11,mm,,,CT SCAN,INDEPENDENT ASSESSOR,RADIOLOGIST 2,,10.1,WEEK 18 (T),2014-11-04,126
920,CDISCPILOT01,TR,01-701-1034,224,TARGET,R2-NA,R2-T02,LDIAM,Longest Diameter,11,mm,11,11,mm,,,CT SCAN,INDEPENDENT ASSESSOR,RADIOLOGIST 2,,10.1,WEEK 18 (T),2014-11-04,126
921,CDISCPILOT01,TR,01-701-1034,225,TARGET,R2-NA,R2-T02,LPERP,Longest Perpendicular,9.9,mm,9.9,9.9,mm,,,CT SCAN,INDEPENDENT ASSESSOR,RADIOLOGIST 2,,10.1,WEEK 18 (T),2014-11-04,126
922,CDISCPILOT01,TR,01-701-1034,226,TARGET,R2-NA,R2-T03,DIAMETER,Diameter,10,mm,10,10,mm,,,CT SCAN,INDEPENDENT ASSESSOR,RADIOLOGIST 2,,10.1,WEEK 18 (T),2014-11-04,126
923,CDISCPILOT01,TR,01-701-1034,227,TARGET,R2-NA,R2-T03,LDIAM,Longest Diameter,10,mm,10,10,mm,,,CT SCAN,INDEPENDENT ASSESSOR,RADIOLOGIST 2,,10.1,WEEK 18 (T),2014-11-04,126
924,CDISCPILOT01,TR,01-701-1034,228,TARGET,R2-NA,R2-T03,LPERP,Longest Perpendicular,9,mm,9,9,mm,,,CT SCAN,INDEPENDENT ASSESSOR,RADIOLOGIST 2,,10.1,WEEK 18 (T),2014-11-04,126
925,CDISCPILOT01,TR,01-701-1034,229,TARGET,R2-NA,R2-T04,DIAMETER,Diameter,18,mm,18,18,mm,,,CT SCAN,INDEPENDENT ASSESSOR,RADIOLOGIST 2,,10.1,WEEK 18 (T),2014-11-04,126
926,CDISCPILOT01,TR,01-701-1034,230,TARGET,R2-NA,R2-T04,LDIAM,Longest Diameter,18,mm,18,18,mm,,,CT SCAN,INDEPENDENT ASSESSOR,RADIOLOGIST 2,,10.1,WEEK 18 (T),2014-11-04,126
927,CDISCPILOT01,TR,01-701-1034,231,TARGET,R2-NA,R2-T04,LPERP,Longest Perpendicular,16.2,mm,16.2,16.2,mm,,,CT SCAN,INDEPENDENT ASSESSOR,RADIOLOGIST 2,,10.1,WEEK 18 (T),2014-11-04,126
928,CDISCPILOT01,TR,01-701-1034,232,TARGET,R2-NA,R2-T05,DIAMETER,Diameter,16,mm,16,16,mm,,,CT SCAN,INDEPENDENT ASSESSOR,RADIOLOGIST 2,,10.1,WEEK 18 (T),2014-11-04,126
929,CDISCPILOT01,TR,01-701-1034,233,TARGET,R2-NA,R2-T05,LDIAM,Longest Diameter,16,mm,16,16,mm,,,CT SCAN,INDEPENDENT ASSESSOR,RADIOLOGIST 2,,10.1,WEEK 18 (T),2014-11-04,126
930,CDISCPILOT01,TR,01-701-1034,234,TARGET,R2-NA,R2-T05,LPERP,Longest Perpendicular,14.4,mm,14.4,14.4,mm,,,CT SCAN,INDEPENDENT ASSESSOR,RADIOLOGIST 2,,10.1,WEEK 18 (T),2014-11-04,126
931,CDISCPILOT01,TR,01-701-1034,235,TARGET,,T01,DIAMETER,Diameter,19,mm,19,19,mm,,,CT SCAN,INVESTIGATOR,,,10.1,WEEK 18 (T),2014-11-04,126
932,CDISCPILOT01,TR,01-701-1034,236,TARGET,,T01,LDIAM,Longest Diameter,19,mm,19,19,mm,,,CT SCAN,INVESTIGATOR,,,10.1,WEEK 18 (T),2014-11-04,126
933,CDISCPILOT01,TR,01-701-1034,237,TARGET,,T01,LPERP,Longest Perpendicular,17.1,mm,17.1,17.1,mm,,,CT SCAN,INVESTIGATOR,,,10.1,WEEK 18 (T),2014-11-04,126
934,CDISCPILOT01,TR,01-701-1034,238,TARGET,,T02,DIAMETER,Diameter,15,mm,15,15,mm,,,CT SCAN,INVESTIGATOR,,,10.1,WEEK 18 (T),2014-11-04,126
935,CDISCPILOT01,TR,01-701-1034,239,TARGET,,T02,LDIAM,Longest Diameter,15,mm,15,15,mm,,,CT SCAN,INVESTIGATOR,,,10.1,WEEK 18 (T),2014-11-04,126
936,CDISCPILOT01,TR,01-701-1034,240,TARGET,,T02,LPERP,Longest Perpendicular,13.5,mm,13.5,13.5,mm,,,CT SCAN,INVESTIGATOR,,,10.1,WEEK 18 (T),2014-11-04,126
937,CDISCPILOT01,TR,01-701-1034,241,TARGET,,T03,DIAMETER,Diameter,13,mm,13,13,mm,,,CT SCAN,INVESTIGATOR,,,10.1,WEEK 18 (T),2014-11-04,126
938,CDISCPILOT01,TR,01-701-1034,242,TARGET,,T03,LDIAM,Longest Diameter,13,mm,13,13,mm,,,CT SCAN,INVESTIGATOR,,,10.1,WEEK 18 (T),2014-11-04,126
939,CDISCPILOT01,TR,01-701-1034,243,TARGET,,T03,LPERP,Longest Perpendicular,11.7,mm,11.7,11.700000000000001,mm,,,CT SCAN,INVESTIGATOR,,,10.1,WEEK 18 (T),2014-11-04,126
940,CDISCPILOT01,TR,01-701-1034,244,TARGET,,T04,DIAMETER,Diameter,13,mm,13,13,mm,,,CT SCAN,INVESTIGATOR,,,10.1,WEEK 18 (T),2014-11-04,126
941,CDISCPILOT01,TR,01-701-1034,245,TARGET,,T04,LDIAM,Longest Diameter,13,mm,13,13,mm,,,CT SCAN,INVESTIGATOR,,,10.1,WEEK 18 (T),2014-11-04,126
942,CDISCPILOT01,TR,01-701-1034,246,TARGET,,T04,LPERP,Longest Perpendicular,11.7,mm,11.7,11.700000000000001,mm,,,CT SCAN,INVESTIGATOR,,,10.1,WEEK 18 (T),2014-11-04,126
943,CDISCPILOT01,TR,01-701-1034,247,TARGET,,T05,DIAMETER,Diameter,14,mm,14,14,mm,,,CT SCAN,INVESTIGATOR,,,10.1,WEEK 18 (T),2014-11-04,126
944,CDISCPILOT01,TR,01-701-1034,248,TARGET,,T05,LDIAM,Longest Diameter,14,mm,14,14,mm,,,CT SCAN,INVESTIGATOR,,,10.1,WEEK 18 (T),2014-11-04,126
945,CDISCPILOT01,TR,01-701-1034,249,TARGET,,T05,LPERP,Longest Perpendicular,12.6,mm,12.6,12.6,mm,,,CT SCAN,INVESTIGATOR,,,10.1,WEEK 18 (T),2014-11-04,126
946,CDISCPILOT01,TR,01-701-1034,250,TARGET,R1-NA,,SUMDIAM,Sum of Diameter,77,mm,77,77,mm,,,CT SCAN,INDEPENDENT ASSESSOR,RADIOLOGIST 1,Y,10.1,WEEK 18 (T),2014-11-04,126
947,CDISCPILOT01,TR,01-701-1034,251,TARGET,R2-NA,,SUMDIAM,Sum of Diameter,74,mm,74,74,mm,,,CT SCAN,INDEPENDENT ASSESSOR,RADIOLOGIST 2,,10.1,WEEK 18 (T),2014-11-04,126
948,CDISCPILOT01,TR,01-701-1034,252,TARGET,,,SUMDIAM,Sum of Diameter,74,mm,74,74,mm,,,CT SCAN,INVESTIGATOR,,,10.1,WEEK 18 (T),2014-11-04,126
949,CDISCPILOT01,TR,01-701-1034,253,NON-TARGET,A4,NT01,TUMSTATE,Tumor State,PRESENT,,PRESENT,,,,,CT SCAN,INVESTIGATOR,,,12,WEEK 24,2014-12-17,168
950,CDISCPILOT01,TR,01-701-1034,254,NON-TARGET,A4,NT02,TUMSTATE,Tumor State,ABSENT,,ABSENT,,,,,CT SCAN,INVESTIGATOR,,,12,WEEK 24,2014-12-17,168
951,CDISCPILOT01,TR,01-701-1034,255,NON-TARGET,A4,NT03,TUMSTATE,Tumor State,ABSENT,,ABSENT,,,,,CT SCAN,INVESTIGATOR,,,12,WEEK 24,2014-12-17,168
952,CDISCPILOT01,TR,01-701-1034,256,NON-TARGET,A4,NT04,TUMSTATE,Tumor State,PRESENT,,PRESENT,,,,,CT SCAN,INVESTIGATOR,,,12,WEEK 24,2014-12-17,168
953,CDISCPILOT01,TR,01-701-1034,257,NON-TARGET,A4,NT05,TUMSTATE,Tumor State,PRESENT,,PRESENT,,,,,CT SCAN,INVESTIGATOR,,,12,WEEK 24,2014-12-17,168
954,CDISCPILOT01,TR,01-701-1034,258,NON-TARGET,R1-A4,R1-NT01,TUMSTATE,Tumor State,UNEQUIVOCAL,,UNEQUIVOCAL,,,,,CT SCAN,INDEPENDENT ASSESSOR,RADIOLOGIST 1,Y,12,WEEK 24,2014-12-17,168
955,CDISCPILOT01,TR,01-701-1034,259,NON-TARGET,R1-A4,R1-NT02,TUMSTATE,Tumor State,PRESENT,,PRESENT,,,,,CT SCAN,INDEPENDENT ASSESSOR,RADIOLOGIST 1,Y,12,WEEK 24,2014-12-17,168
956,CDISCPILOT01,TR,01-701-1034,260,NON-TARGET,R1-A4,R1-NT03,TUMSTATE,Tumor State,ABSENT,,ABSENT,,,,,CT SCAN,INDEPENDENT ASSESSOR,RADIOLOGIST 1,Y,12,WEEK 24,2014-12-17,168
957,CDISCPILOT01,TR,01-701-1034,261,NON-TARGET,R1-A4,R1-NT04,TUMSTATE,Tumor State,ABSENT,,ABSENT,,,,,CT SCAN,INDEPENDENT ASSESSOR,RADIOLOGIST 1,Y,12,WEEK 24,2014-12-17,168
958,CDISCPILOT01,TR,01-701-1034,262,NON-TARGET,R1-A4,R1-NT05,TUMSTATE,Tumor State,ABSENT,,ABSENT,,,,,CT SCAN,INDEPENDENT ASSESSOR,RADIOLOGIST 1,Y,12,WEEK 24,2014-12-17,168
959,CDISCPILOT01,TR,01-701-1034,263,NON-TARGET,R2-A4,R2-NT01,TUMSTATE,Tumor State,ABSENT,,ABSENT,,,,,CT SCAN,INDEPENDENT ASSESSOR,RADIOLOGIST 2,,12,WEEK 24,2014-12-17,168
960,CDISCPILOT01,TR,01-701-1034,264,NON-TARGET,R2-A4,R2-NT02,TUMSTATE,Tumor State,PRESENT,,PRESENT,,,,,CT SCAN,INDEPENDENT ASSESSOR,RADIOLOGIST 2,,12,WEEK 24,2014-12-17,168
961,CDISCPILOT01,TR,01-701-1034,265,NON-TARGET,R2-A4,R2-NT03,TUMSTATE,Tumor State,UNEQUIVOCAL,,UNEQUIVOCAL,,,,,CT SCAN,INDEPENDENT ASSESSOR,RADIOLOGIST 2,,12,WEEK 24,2014-12-17,168
962,CDISCPILOT01,TR,01-701-1034,266,NON-TARGET,R2-A4,R2-NT04,TUMSTATE,Tumor State,,,,,,NOT DONE,NOT ASSESSABLE: Image obscured,CT SCAN,INDEPENDENT ASSESSOR,RADIOLOGIST 2,,12,WEEK 24,2014-12-17,168
963,CDISCPILOT01,TR,01-701-1034,267,NON-TARGET,R2-A4,R2-NT05,TUMSTATE,Tumor State,UNEQUIVOCAL,,UNEQUIVOCAL,,,,,CT SCAN,INDEPENDENT ASSESSOR,RADIOLOGIST 2,,12,WEEK 24,2014-12-17,168
964,CDISCPILOT01,TR,01-701-1034,268,TARGET,R1-A4,R1-T01,DIAMETER,Diameter,19,mm,19,19,mm,,,CT SCAN,INDEPENDENT ASSESSOR,RADIOLOGIST 1,Y,12,WEEK 24,2014-12-17,168
965,CDISCPILOT01,TR,01-701-1034,269,TARGET,R1-A4,R1-T01,LDIAM,Longest Diameter,19,mm,19,19,mm,,,CT SCAN,INDEPENDENT ASSESSOR,RADIOLOGIST 1,Y,12,WEEK 24,2014-12-17,168
966,CDISCPILOT01,TR,01-701-1034,270,TARGET,R1-A4,R1-T01,LPERP,Longest Perpendicular,17.1,mm,17.1,17.1,mm,,,CT SCAN,INDEPENDENT ASSESSOR,RADIOLOGIST 1,Y,12,WEEK 24,2014-12-17,168
967,CDISCPILOT01,TR,01-701-1034,271,TARGET,R1-A4,R1-T02,DIAMETER,Diameter,15,mm,15,15,mm,,,CT SCAN,INDEPENDENT ASSESSOR,RADIOLOGIST 1,Y,12,WEEK 24,2014-12-17,168
968,CDISCPILOT01,TR,01-701-1034,272,TARGET,R1-A4,R1-T02,LDIAM,Longest Diameter,16.5,mm,16.5,16.5,mm,,,CT SCAN,INDEPENDENT ASSESSOR,RADIOLOGIST 1,Y,12,WEEK 24,2014-12-17,168
969,CDISCPILOT01,TR,01-701-1034,273,TARGET,R1-A4,R1-T02,LPERP,Longest Perpendicular,15,mm,15,15,mm,,,CT SCAN,INDEPENDENT ASSESSOR,RADIOLOGIST 1,Y,12,WEEK 24,2014-12-17,168
970,CDISCPILOT01,TR,01-701-1034,274,TARGET,R1-A4,R1-T03,DIAMETER,Diameter,10,mm,10,10,mm,,,CT SCAN,INDEPENDENT ASSESSOR,RADIOLOGIST 1,Y,12,WEEK 24,2014-12-17,168
971,CDISCPILOT01,TR,01-701-1034,275,TARGET,R1-A4,R1-T03,LDIAM,Longest Diameter,10,mm,10,10,mm,,,CT SCAN,INDEPENDENT ASSESSOR,RADIOLOGIST 1,Y,12,WEEK 24,2014-12-17,168
972,CDISCPILOT01,TR,01-701-1034,276,TARGET,R1-A4,R1-T03,LPERP,Longest Perpendicular,9,mm,9,9,mm,,,CT SCAN,INDEPENDENT ASSESSOR,RADIOLOGIST 1,Y,12,WEEK 24,2014-12-17,168
973,CDISCPILOT01,TR,01-701-1034,277,TARGET,R1-A4,R1-T04,DIAMETER,Diameter,16,mm,16,16,mm,,,CT SCAN,INDEPENDENT ASSESSOR,RADIOLOGIST 1,Y,12,WEEK 24,2014-12-17,168
974,CDISCPILOT01,TR,01-701-1034,278,TARGET,R1-A4,R1-T04,LDIAM,Longest Diameter,16,mm,16,16,mm,,,CT SCAN,INDEPENDENT ASSESSOR,RADIOLOGIST 1,Y,12,WEEK 24,2014-12-17,168
975,CDISCPILOT01,TR,01-701-1034,279,TARGET,R1-A4,R1-T04,LPERP,Longest Perpendicular,14.4,mm,14.4,14.4,mm,,,CT SCAN,INDEPENDENT ASSESSOR,RADIOLOGIST 1,Y,12,WEEK 24,2014-12-17,168
976,CDISCPILOT01,TR,01-701-1034,280,TARGET,R1-A4,R1-T05,DIAMETER,Diameter,10,mm,10,10,mm,,,CT SCAN,INDEPENDENT ASSESSOR,RADIOLOGIST 1,Y,12,WEEK 24,2014-12-17,168
977,CDISCPILOT01,TR,01-701-1034,281,TARGET,R1-A4,R1-T05,LDIAM,Longest Diameter,10,mm,10,10,mm,,,CT SCAN,INDEPENDENT ASSESSOR,RADIOLOGIST 1,Y,12,WEEK 24,2014-12-17,168
978,CDISCPILOT01,TR,01-701-1034,282,TARGET,R1-A4,R1-T05,LPERP,Longest Perpendicular,9,mm,9,9,mm,,,CT SCAN,INDEPENDENT ASSESSOR,RADIOLOGIST 1,Y,12,WEEK 24,2014-12-17,168
979,CDISCPILOT01,TR,01-701-1034,283,TARGET,R2-A4,R2-T01,DIAMETER,Diameter,18,mm,18,18,mm,,,CT SCAN,INDEPENDENT ASSESSOR,RADIOLOGIST 2,,12,WEEK 24,2014-12-17,168
980,CDISCPILOT01,TR,01-701-1034,284,TARGET,R2-A4,R2-T01,LDIAM,Longest Diameter,18,mm,18,18,mm,,,CT SCAN,INDEPENDENT ASSESSOR,RADIOLOGIST 2,,12,WEEK 24,2014-12-17,168
981,CDISCPILOT01,TR,01-701-1034,285,TARGET,R2-A4,R2-T01,LPERP,Longest Perpendicular,16.2,mm,16.2,16.2,mm,,,CT SCAN,INDEPENDENT ASSESSOR,RADIOLOGIST 2,,12,WEEK 24,2014-12-17,168
982,CDISCPILOT01,TR,01-701-1034,286,TARGET,R2-A4,R2-T02,DIAMETER,Diameter,13,mm,13,13,mm,,,CT SCAN,INDEPENDENT ASSESSOR,RADIOLOGIST 2,,12,WEEK 24,2014-12-17,168
983,CDISCPILOT01,TR,01-701-1034,287,TARGET,R2-A4,R2-T02,LDIAM,Longest Diameter,13,mm,13,13,mm,,,CT SCAN,INDEPENDENT ASSESSOR,RADIOLOGIST 2,,12,WEEK 24,2014-12-17,168
984,CDISCPILOT01,TR,01-701-1034,288,TARGET,R2-A4,R2-T02,LPERP,Longest Perpendicular,11.7,mm,11.7,11.700000000000001,mm,,,CT SCAN,INDEPENDENT ASSESSOR,RADIOLOGIST 2,,12,WEEK 24,2014-12-17,168
985,CDISCPILOT01,TR,01-701-1034,289,TARGET,R2-A4,R2-T03,DIAMETER,Diameter,10,mm,10,10,mm,,,CT SCAN,INDEPENDENT ASSESSOR,RADIOLOGIST 2,,12,WEEK 24,2014-12-17,168
986,CDISCPILOT01,TR,01-701-1034,290,TARGET,R2-A4,R2-T03,LDIAM,Longest Diameter,11,mm,11,11,mm,,,CT SCAN,INDEPENDENT ASSESSOR,RADIOLOGIST 2,,12,WEEK 24,2014-12-17,168
987,CDISCPILOT01,TR,01-701-1034,291,TARGET,R2-A4,R2-T03,LPERP,Longest Perpendicular,10,mm,10,10,mm,,,CT SCAN,INDEPENDENT ASSESSOR,RADIOLOGIST 2,,12,WEEK 24,2014-12-17,168
988,CDISCPILOT01,TR,01-701-1034,292,TARGET,R2-A4,R2-T04,DIAMETER,Diameter,15,mm,15,15,mm,,,CT SCAN,INDEPENDENT ASSESSOR,RADIOLOGIST 2,,12,WEEK 24,2014-12-17,168
989,CDISCPILOT01,TR,01-701-1034,293,TARGET,R2-A4,R2-T04,LDIAM,Longest Diameter,15,mm,15,15,mm,,,CT SCAN,INDEPENDENT ASSESSOR,RADIOLOGIST 2,,12,WEEK 24,2014-12-17,168
990,CDISCPILOT01,TR,01-701-1034,294,TARGET,R2-A4,R2-T04,LPERP,Longest Perpendicular,13.5,mm,13.5,13.5,mm,,,CT SCAN,INDEPENDENT ASSESSOR,RADIOLOGIST 2,,12,WEEK 24,2014-12-17,168
991,CDISCPILOT01,TR,01-701-1034,295,TARGET,R2-A4,R2-T05,DIAMETER,Diameter,16,mm,16,16,mm,,,CT SCAN,INDEPENDENT ASSESSOR,RADIOLOGIST 2,,12,WEEK 24,2014-12-17,168
992,CDISCPILOT01,TR,01-701-1034,296,TARGET,R2-A4,R2-T05,LDIAM,Longest Diameter,16,mm,16,16,mm,,,CT SCAN,INDEPENDENT ASSESSOR,RADIOLOGIST 2,,12,WEEK 24,2014-12-17,168
993,CDISCPILOT01,TR,01-701-1034,297,TARGET,R2-A4,R2-T05,LPERP,Longest Perpendicular,14.4,mm,14.4,14.4,mm,,,CT SCAN,INDEPENDENT ASSESSOR,RADIOLOGIST 2,,12,WEEK 24,2014-12-17,168
994,CDISCPILOT01,TR,01-701-1034,298,TARGET,A4,T01,DIAMETER,Diameter,11,mm,11,11,mm,,,CT SCAN,INVESTIGATOR,,,12,WEEK 24,2014-12-17,168
995,CDISCPILOT01,TR,01-701-1034,299,TARGET,A4,T01,LDIAM,Longest Diameter,11,mm,11,11,mm,,,CT SCAN,INVESTIGATOR,,,12,WEEK 24,2014-12-17,168
996,CDISCPILOT01,TR,01-701-1034,300,TARGET,A4,T01,LPERP,Longest Perpendicular,9.9,mm,9.9,9.9,mm,,,CT SCAN,INVESTIGATOR,,,12,WEEK 24,2014-12-17,168
997,CDISCPILOT01,TR,01-701-1034,301,TARGET,A4,T02,DIAMETER,Diameter,18,mm,18,18,mm,,,CT SCAN,INVESTIGATOR,,,12,WEEK 24,2014-12-17,168
998,CDISCPILOT01,TR,01-701-1034,302,TARGET,A4,T02,LDIAM,Longest Diameter,19.8,mm,19.8,19.8,mm,,,CT SCAN,INVESTIGATOR,,,12,WEEK 24,2014-12-17,168
999,CDISCPILOT01,TR,01-701-1034,303,TARGET,A4,T02,LPERP,Longest Perpendicular,18,mm,18,18,mm,,,CT SCAN,INVESTIGATOR,,,12,WEEK 24,2014-12-17,168
1000,CDISCPILOT01,TR,01-701-1034,304,TARGET,A4,T03,DIAMETER,Diameter,16,mm,16,16,mm,,,CT SCAN,INVESTIGATOR,,,12,WEEK 24,2014-12-17,168
1001,CDISCPILOT01,TR,01-701-1034,305,TARGET,A4,T03,LDIAM,Longest Diameter,16,mm,16,16,mm,,,CT SCAN,INVESTIGATOR,,,12,WEEK 24,2014-12-17,168
1002,CDISCPILOT01,TR,01-701-1034,306,TARGET,A4,T03,LPERP,Longest Perpendicular,14.4,mm,14.4,14.4,mm,,,CT SCAN,INVESTIGATOR,,,12,WEEK 24,2014-12-17,168
1003,CDISCPILOT01,TR,01-701-1034,307,TARGET,A4,T04,DIAMETER,Diameter,19,mm,19,19,mm,,,CT SCAN,INVESTIGATOR,,,12,WEEK 24,2014-12-17,168
1004,CDISCPILOT01,TR,01-701-1034,308,TARGET,A4,T04,LDIAM,Longest Diameter,19,mm,19,19,mm,,,CT SCAN,INVESTIGATOR,,,12,WEEK 24,2014-12-17,168
1005,CDISCPILOT01,TR,01-701-1034,309,TARGET,A4,T04,LPERP,Longest Perpendicular,17.1,mm,17.1,17.1,mm,,,CT SCAN,INVESTIGATOR,,,12,WEEK 24,2014-12-17,168
1006,CDISCPILOT01,TR,01-701-1034,310,TARGET,A4,T05,DIAMETER,Diameter,12,mm,12,12,mm,,,CT SCAN,INVESTIGATOR,,,12,WEEK 24,2014-12-17,168
1007,CDISCPILOT01,TR,01-701-1034,311,TARGET,A4,T05,LDIAM,Longest Diameter,12,mm,12,12,mm,,,CT SCAN,INVESTIGATOR,,,12,WEEK 24,2014-12-17,168
1008,CDISCPILOT01,TR,01-701-1034,312,TARGET,A4,T05,LPERP,Longest Perpendicular,10.8,mm,10.8,10.8,mm,,,CT SCAN,INVESTIGATOR,,,12,WEEK 24,2014-12-17,168
1009,CDISCPILOT01,TR,01-701-1034,313,TARGET,R1-A4,,SUMDIAM,Sum of Diameter,70,mm,70,70,mm,,,CT SCAN,INDEPENDENT ASSESSOR,RADIOLOGIST 1,Y,12,WEEK 24,2014-12-17,168
1010,CDISCPILOT01,TR,01-701-1034,314,TARGET,R2-A4,,SUMDIAM,Sum of Diameter,72,mm,72,72,mm,,,CT SCAN,INDEPENDENT ASSESSOR,RADIOLOGIST 2,,12,WEEK 24,2014-12-17,168
1011,CDISCPILOT01,TR,01-701-1034,315,TARGET,A4,,SUMDIAM,Sum of Diameter,76,mm,76,76,mm,,,CT SCAN,INVESTIGATOR,,,12,WEEK 24,2014-12-17,168
1012,CDISCPILOT01,TR,01-701-1047,1,NON-TARGET,A1,NT01,TUMSTATE,Tumor State,PRESENT,,PRESENT,,,,,CT SCAN,INVESTIGATOR,,,3,BASELINE,2013-02-12,1
1013,CDISCPILOT01,TR,01-701-1047,2,NON-TARGET,A1,NT02,TUMSTATE,Tumor State,PRESENT,,PRESENT,,,,,CT SCAN,INVESTIGATOR,,,3,BASELINE,2013-02-12,1
1014,CDISCPILOT01,TR,01-701-1047,3,NON-TARGET,A1,NT03,TUMSTATE,Tumor State,PRESENT,,PRESENT,,,,,CT SCAN,INVESTIGATOR,,,3,BASELINE,2013-02-12,1
1015,CDISCPILOT01,TR,01-701-1047,4,NON-TARGET,A1,NT04,TUMSTATE,Tumor State,PRESENT,,PRESENT,,,,,CT SCAN,INVESTIGATOR,,,3,BASELINE,2013-02-12,1
1016,CDISCPILOT01,TR,01-701-1047,5,NON-TARGET,A1,NT05,TUMSTATE,Tumor State,PRESENT,,PRESENT,,,,,CT SCAN,INVESTIGATOR,,,3,BASELINE,2013-02-12,1
1017,CDISCPILOT01,TR,01-701-1047,6,NON-TARGET,R1-A1,R1-NT01,TUMSTATE,Tumor State,PRESENT,,PRESENT,,,,,CT SCAN,INDEPENDENT ASSESSOR,RADIOLOGIST 1,Y,3,BASELINE,2013-02-12,1
1018,CDISCPILOT01,TR,01-701-1047,7,NON-TARGET,R1-A1,R1-NT02,TUMSTATE,Tumor State,PRESENT,,PRESENT,,,,,CT SCAN,INDEPENDENT ASSESSOR,RADIOLOGIST 1,Y,3,BASELINE,2013-02-12,1
1019,CDISCPILOT01,TR,01-701-1047,8,NON-TARGET,R1-A1,R1-NT03,TUMSTATE,Tumor State,PRESENT,,PRESENT,,,,,CT SCAN,INDEPENDENT ASSESSOR,RADIOLOGIST 1,Y,3,BASELINE,2013-02-12,1
1020,CDISCPILOT01,TR,01-701-1047,9,NON-TARGET,R1-A1,R1-NT04,TUMSTATE,Tumor State,PRESENT,,PRESENT,,,,,CT SCAN,INDEPENDENT ASSESSOR,RADIOLOGIST 1,Y,3,BASELINE,2013-02-12,1
1021,CDISCPILOT01,TR,01-701-1047,10,NON-TARGET,R1-A1,R1-NT05,TUMSTATE,Tumor State,PRESENT,,PRESENT,,,,,CT SCAN,INDEPENDENT ASSESSOR,RADIOLOGIST 1,Y,3,BASELINE,2013-02-12,1
1022,CDISCPILOT01,TR,01-701-1047,11,NON-TARGET,R2-A1,R2-NT01,TUMSTATE,Tumor State,PRESENT,,PRESENT,,,,,CT SCAN,INDEPENDENT ASSESSOR,RADIOLOGIST 2,,3,BASELINE,2013-02-12,1
1023,CDISCPILOT01,TR,01-701-1047,12,NON-TARGET,R2-A1,R2-NT02,TUMSTATE,Tumor State,PRESENT,,PRESENT,,,,,CT SCAN,INDEPENDENT ASSESSOR,RADIOLOGIST 2,,3,BASELINE,2013-02-12,1
1024,CDISCPILOT01,TR,01-701-1047,13,NON-TARGET,R2-A1,R2-NT03,TUMSTATE,Tumor State,PRESENT,,PRESENT,,,,,CT SCAN,INDEPENDENT ASSESSOR,RADIOLOGIST 2,,3,BASELINE,2013-02-12,1
1025,CDISCPILOT01,TR,01-701-1047,14,NON-TARGET,R2-A1,R2-NT04,TUMSTATE,Tumor State,PRESENT,,PRESENT,,,,,CT SCAN,INDEPENDENT ASSESSOR,RADIOLOGIST 2,,3,BASELINE,2013-02-12,1
1026,CDISCPILOT01,TR,01-701-1047,15,NON-TARGET,R2-A1,R2-NT05,TUMSTATE,Tumor State,PRESENT,,PRESENT,,,,,CT SCAN,INDEPENDENT ASSESSOR,RADIOLOGIST 2,,3,BASELINE,2013-02-12,1
1027,CDISCPILOT01,TR,01-701-1047,16,TARGET,R1-A1,R1-T01,DIAMETER,Diameter,19,mm,19,19,mm,,,CT SCAN,INDEPENDENT ASSESSOR,RADIOLOGIST 1,Y,3,BASELINE,2013-02-12,1
1028,CDISCPILOT01,TR,01-701-1047,17,TARGET,R1-A1,R1-T01,LDIAM,Longest Diameter,19,mm,19,19,mm,,,CT SCAN,INDEPENDENT ASSESSOR,RADIOLOGIST 1,Y,3,BASELINE,2013-02-12,1
1029,CDISCPILOT01,TR,01-701-1047,18,TARGET,R1-A1,R1-T01,LPERP,Longest Perpendicular,17.1,mm,17.1,17.1,mm,,,CT SCAN,INDEPENDENT ASSESSOR,RADIOLOGIST 1,Y,3,BASELINE,2013-02-12,1
1030,CDISCPILOT01,TR,01-701-1047,19,TARGET,R1-A1,R1-T02,DIAMETER,Diameter,13,mm,13,13,mm,,,CT SCAN,INDEPENDENT ASSESSOR,RADIOLOGIST 1,Y,3,BASELINE,2013-02-12,1
1031,CDISCPILOT01,TR,01-701-1047,20,TARGET,R1-A1,R1-T02,LDIAM,Longest Diameter,13,mm,13,13,mm,,,CT SCAN,INDEPENDENT ASSESSOR,RADIOLOGIST 1,Y,3,BASELINE,2013-02-12,1
1032,CDISCPILOT01,TR,01-701-1047,21,TARGET,R1-A1,R1-T02,LPERP,Longest Perpendicular,11.7,mm,11.7,11.700000000000001,mm,,,CT SCAN,INDEPENDENT ASSESSOR,RADIOLOGIST 1,Y,3,BASELINE,2013-02-12,1
1033,CDISCPILOT01,TR,01-701-1047,22,TARGET,R1-A1,R1-T03,DIAMETER,Diameter,11,mm,11,11,mm,,,CT SCAN,INDEPENDENT ASSESSOR,RADIOLOGIST 1,Y,3,BASELINE,2013-02-12,1
1034,CDISCPILOT01,TR,01-701-1047,23,TARGET,R1-A1,R1-T03,LDIAM,Longest Diameter,12.1,mm,12.1,12.100000000000001,mm,,,CT SCAN,INDEPENDENT ASSESSOR,RADIOLOGIST 1,Y,3,BASELINE,2013-02-12,1
1035,CDISCPILOT01,TR,01-701-1047,24,TARGET,R1-A1,R1-T03,LPERP,Longest Perpendicular,11,mm,11,11,mm,,,CT SCAN,INDEPENDENT ASSESSOR,RADIOLOGIST 1,Y,3,BASELINE,2013-02-12,1
1036,CDISCPILOT01,TR,01-701-1047,25,TARGET,R1-A1,R1-T04,DIAMETER,Diameter,18,mm,18,18,mm,,,CT SCAN,INDEPENDENT ASSESSOR,RADIOLOGIST 1,Y,3,BASELINE,2013-02-12,1
1037,CDISCPILOT01,TR,01-701-1047,26,TARGET,R1-A1,R1-T04,LDIAM,Longest Diameter,18,mm,18,18,mm,,,CT SCAN,INDEPENDENT ASSESSOR,RADIOLOGIST 1,Y,3,BASELINE,2013-02-12,1
1038,CDISCPILOT01,TR,01-701-1047,27,TARGET,R1-A1,R1-T04,LPERP,Longest Perpendicular,16.2,mm,16.2,16.2,mm,,,CT SCAN,INDEPENDENT ASSESSOR,RADIOLOGIST 1,Y,3,BASELINE,2013-02-12,1
1039,CDISCPILOT01,TR,01-701-1047,28,TARGET,R1-A1,R1-T05,DIAMETER,Diameter,10,mm,10,10,mm,,,CT SCAN,INDEPENDENT ASSESSOR,RADIOLOGIST 1,Y,3,BASELINE,2013-02-12,1
1040,CDISCPILOT01,TR,01-701-1047,29,TARGET,R1-A1,R1-T05,LDIAM,Longest Diameter,10,mm,10,10,mm,,,CT SCAN,INDEPENDENT ASSESSOR,RADIOLOGIST 1,Y,3,BASELINE,2013-02-12,1
1041,CDISCPILOT01,TR,01-701-1047,30,TARGET,R1-A1,R1-T05,LPERP,Longest Perpendicular,9,mm,9,9,mm,,,CT SCAN,INDEPENDENT ASSESSOR,RADIOLOGIST 1,Y,3,BASELINE,2013-02-12,1
1042,CDISCPILOT01,TR,01-701-1047,31,TARGET,R2-A1,R2-T01,DIAMETER,Diameter,19,mm,19,19,mm,,,CT SCAN,INDEPENDENT ASSESSOR,RADIOLOGIST 2,,3,BASELINE,2013-02-12,1
1043,CDISCPILOT01,TR,01-701-1047,32,TARGET,R2-A1,R2-T01,LDIAM,Longest Diameter,20.9,mm,20.9,20.900000000000002,mm,,,CT SCAN,INDEPENDENT ASSESSOR,RADIOLOGIST 2,,3,BASELINE,2013-02-12,1
1044,CDISCPILOT01,TR,01-701-1047,33,TARGET,R2-A1,R2-T01,LPERP,Longest Perpendicular,19,mm,19,19,mm,,,CT SCAN,INDEPENDENT ASSESSOR,RADIOLOGIST 2,,3,BASELINE,2013-02-12,1
1045,CDISCPILOT01,TR,01-701-1047,34,TARGET,R2-A1,R2-T02,DIAMETER,Diameter,12,mm,12,12,mm,,,CT SCAN,INDEPENDENT ASSESSOR,RADIOLOGIST 2,,3,BASELINE,2013-02-12,1
1046,CDISCPILOT01,TR,01-701-1047,35,TARGET,R2-A1,R2-T02,LDIAM,Longest Diameter,12,mm,12,12,mm,,,CT SCAN,INDEPENDENT ASSESSOR,RADIOLOGIST 2,,3,BASELINE,2013-02-12,1
1047,CDISCPILOT01,TR,01-701-1047,36,TARGET,R2-A1,R2-T02,LPERP,Longest Perpendicular,10.8,mm,10.8,10.8,mm,,,CT SCAN,INDEPENDENT ASSESSOR,RADIOLOGIST 2,,3,BASELINE,2013-02-12,1
1048,CDISCPILOT01,TR,01-701-1047,37,TARGET,R2-A1,R2-T03,DIAMETER,Diameter,12,mm,12,12,mm,,,CT SCAN,INDEPENDENT ASSESSOR,RADIOLOGIST 2,,3,BASELINE,2013-02-12,1
1049,CDISCPILOT01,TR,01-701-1047,38,TARGET,R2-A1,R2-T03,LDIAM,Longest Diameter,12,mm,12,12,mm,,,CT SCAN,INDEPENDENT ASSESSOR,RADIOLOGIST 2,,3,BASELINE,2013-02-12,1
1050,CDISCPILOT01,TR,01-701-1047,39,TARGET,R2-A1,R2-T03,LPERP,Longest Perpendicular,10.8,mm,10.8,10.8,mm,,,CT SCAN,INDEPENDENT ASSESSOR,RADIOLOGIST 2,,3,BASELINE,2013-02-12,1
1051,CDISCPILOT01,TR,01-701-1047,40,TARGET,R2-A1,R2-T04,DIAMETER,Diameter,14,mm,14,14,mm,,,CT SCAN,INDEPENDENT ASSESSOR,RADIOLOGIST 2,,3,BASELINE,2013-02-12,1
1052,CDISCPILOT01,TR,01-701-1047,41,TARGET,R2-A1,R2-T04,LDIAM,Longest Diameter,14,mm,14,14,mm,,,CT SCAN,INDEPENDENT ASSESSOR,RADIOLOGIST 2,,3,BASELINE,2013-02-12,1
1053,CDISCPILOT01,TR,01-701-1047,42,TARGET,R2-A1,R2-T04,LPERP,Longest Perpendicular,12.6,mm,12.6,12.6,mm,,,CT SCAN,INDEPENDENT ASSESSOR,RADIOLOGIST 2,,3,BASELINE,2013-02-12,1
1054,CDISCPILOT01,TR,01-701-1047,43,TARGET,R2-A1,R2-T05,DIAMETER,Diameter,12,mm,12,12,mm,,,CT SCAN,INDEPENDENT ASSESSOR,RADIOLOGIST 2,,3,BASELINE,2013-02-12,1
1055,CDISCPILOT01,TR,01-701-1047,44,TARGET,R2-A1,R2-T05,LDIAM,Longest Diameter,12,mm,12,12,mm,,,CT SCAN,INDEPENDENT ASSESSOR,RADIOLOGIST 2,,3,BASELINE,2013-02-12,1
1056,CDISCPILOT01,TR,01-701-1047,45,TARGET,R2-A1,R2-T05,LPERP,Longest Perpendicular,10.8,mm,10.8,10.8,mm,,,CT SCAN,INDEPENDENT ASSESSOR,RADIOLOGIST 2,,3,BASELINE,2013-02-12,1
1057,CDISCPILOT01,TR,01-701-1047,46,TARGET,A1,T01,DIAMETER,Diameter,18,mm,18,18,mm,,,CT SCAN,INVESTIGATOR,,,3,BASELINE,2013-02-12,1
1058,CDISCPILOT01,TR,01-701-1047,47,TARGET,A1,T01,LDIAM,Longest Diameter,19.8,mm,19.8,19.8,mm,,,CT SCAN,INVESTIGATOR,,,3,BASELINE,2013-02-12,1
1059,CDISCPILOT01,TR,01-701-1047,48,TARGET,A1,T01,LPERP,Longest Perpendicular,18,mm,18,18,mm,,,CT SCAN,INVESTIGATOR,,,3,BASELINE,2013-02-12,1
1060,CDISCPILOT01,TR,01-701-1047,49,TARGET,A1,T02,DIAMETER,Diameter,17,mm,17,17,mm,,,CT SCAN,INVESTIGATOR,,,3,BASELINE,2013-02-12,1
1061,CDISCPILOT01,TR,01-701-1047,50,TARGET,A1,T02,LDIAM,Longest Diameter,17,mm,17,17,mm,,,CT SCAN,INVESTIGATOR,,,3,BASELINE,2013-02-12,1
1062,CDISCPILOT01,TR,01-701-1047,51,TARGET,A1,T02,LPERP,Longest Perpendicular,15.3,mm,15.3,15.3,mm,,,CT SCAN,INVESTIGATOR,,,3,BASELINE,2013-02-12,1
1063,CDISCPILOT01,TR,01-701-1047,52,TARGET,A1,T03,DIAMETER,Diameter,18,mm,18,18,mm,,,CT SCAN,INVESTIGATOR,,,3,BASELINE,2013-02-12,1
1064,CDISCPILOT01,TR,01-701-1047,53,TARGET,A1,T03,LDIAM,Longest Diameter,18,mm,18,18,mm,,,CT SCAN,INVESTIGATOR,,,3,BASELINE,2013-02-12,1
1065,CDISCPILOT01,TR,01-701-1047,54,TARGET,A1,T03,LPERP,Longest Perpendicular,16.2,mm,16.2,16.2,mm,,,CT SCAN,INVESTIGATOR,,,3,BASELINE,2013-02-12,1
1066,CDISCPILOT01,TR,01-701-1047,55,TARGET,A1,T04,DIAMETER,Diameter,18,mm,18,18,mm,,,CT SCAN,INVESTIGATOR,,,3,BASELINE,2013-02-12,1
1067,CDISCPILOT01,TR,01-701-1047,56,TARGET,A1,T04,LDIAM,Longest Diameter,18,mm,18,18,mm,,,CT SCAN,INVESTIGATOR,,,3,BASELINE,2013-02-12,1
1068,CDISCPILOT01,TR,01-701-1047,57,TARGET,A1,T04,LPERP,Longest Perpendicular,16.2,mm,16.2,16.2,mm,,,CT SCAN,INVESTIGATOR,,,3,BASELINE,2013-02-12,1
1069,CDISCPILOT01,TR,01-701-1047,58,TARGET,A1,T05,DIAMETER,Diameter,10,mm,10,10,mm,,,CT SCAN,INVESTIGATOR,,,3,BASELINE,2013-02-12,1
1070,CDISCPILOT01,TR,01-701-1047,59,TARGET,A1,T05,LDIAM,Longest Diameter,10,mm,10,10,mm,,,CT SCAN,INVESTIGATOR,,,3,BASELINE,2013-02-12,1
1071,CDISCPILOT01,TR,01-701-1047,60,TARGET,A1,T05,LPERP,Longest Perpendicular,9,mm,9,9,mm,,,CT SCAN,INVESTIGATOR,,,3,BASELINE,2013-02-12,1
1072,CDISCPILOT01,TR,01-701-1047,61,TARGET,R1-A1,,SUMDIAM,Sum of Diameter,71,mm,71,71,mm,,,CT SCAN,INDEPENDENT ASSESSOR,RADIOLOGIST 1,Y,3,BASELINE,2013-02-12,1
1073,CDISCPILOT01,TR,01-701-1047,62,TARGET,R2-A1,,SUMDIAM,Sum of Diameter,69,mm,69,69,mm,,,CT SCAN,INDEPENDENT ASSESSOR,RADIOLOGIST 2,,3,BASELINE,2013-02-12,1
1074,CDISCPILOT01,TR,01-701-1047,63,TARGET,A1,,SUMDIAM,Sum of Diameter,81,mm,81,81,mm,,,CT SCAN,INVESTIGATOR,,,3,BASELINE,2013-02-12,1
1075,CDISCPILOT01,TR,01-701-1097,1,NON-TARGET,A1,NT01,TUMSTATE,Tumor State,PRESENT,,PRESENT,,,,,CT SCAN,INVESTIGATOR,,,3,BASELINE,2014-01-01,1
1076,CDISCPILOT01,TR,01-701-1097,2,NON-TARGET,A1,NT02,TUMSTATE,Tumor State,PRESENT,,PRESENT,,,,,CT SCAN,INVESTIGATOR,,,3,BASELINE,2014-01-01,1
1077,CDISCPILOT01,TR,01-701-1097,3,NON-TARGET,A1,NT03,TUMSTATE,Tumor State,PRESENT,,PRESENT,,,,,CT SCAN,INVESTIGATOR,,,3,BASELINE,2014-01-01,1
1078,CDISCPILOT01,TR,01-701-1097,4,NON-TARGET,A1,NT04,TUMSTATE,Tumor State,PRESENT,,PRESENT,,,,,CT SCAN,INVESTIGATOR,,,3,BASELINE,2014-01-01,1
1079,CDISCPILOT01,TR,01-701-1097,5,NON-TARGET,A1,NT05,TUMSTATE,Tumor State,PRESENT,,PRESENT,,,,,CT SCAN,INVESTIGATOR,,,3,BASELINE,2014-01-01,1
1080,CDISCPILOT01,TR,01-701-1097,6,NON-TARGET,R1-A1,R1-NT01,TUMSTATE,Tumor State,PRESENT,,PRESENT,,,,,CT SCAN,INDEPENDENT ASSESSOR,RADIOLOGIST 1,Y,3,BASELINE,2014-01-01,1
1081,CDISCPILOT01,TR,01-701-1097,7,NON-TARGET,R1-A1,R1-NT02,TUMSTATE,Tumor State,PRESENT,,PRESENT,,,,,CT SCAN,INDEPENDENT ASSESSOR,RADIOLOGIST 1,Y,3,BASELINE,2014-01-01,1
1082,CDISCPILOT01,TR,01-701-1097,8,NON-TARGET,R1-A1,R1-NT03,TUMSTATE,Tumor State,PRESENT,,PRESENT,,,,,CT SCAN,INDEPENDENT ASSESSOR,RADIOLOGIST 1,Y,3,BASELINE,2014-01-01,1
1083,CDISCPILOT01,TR,01-701-1097,9,NON-TARGET,R1-A1,R1-NT04,TUMSTATE,Tumor State,PRESENT,,PRESENT,,,,,CT SCAN,INDEPENDENT ASSESSOR,RADIOLOGIST 1,Y,3,BASELINE,2014-01-01,1
1084,CDISCPILOT01,TR,01-701-1097,10,NON-TARGET,R1-A1,R1-NT05,TUMSTATE,Tumor State,PRESENT,,PRESENT,,,,,CT SCAN,INDEPENDENT ASSESSOR,RADIOLOGIST 1,Y,3,BASELINE,2014-01-01,1
1085,CDISCPILOT01,TR,01-701-1097,11,NON-TARGET,R2-A1,R2-NT01,TUMSTATE,Tumor State,PRESENT,,PRESENT,,,,,CT SCAN,INDEPENDENT ASSESSOR,RADIOLOGIST 2,,3,BASELINE,2014-01-01,1
1086,CDISCPILOT01,TR,01-701-1097,12,NON-TARGET,R2-A1,R2-NT02,TUMSTATE,Tumor State,PRESENT,,PRESENT,,,,,CT SCAN,INDEPENDENT ASSESSOR,RADIOLOGIST 2,,3,BASELINE,2014-01-01,1
1087,CDISCPILOT01,TR,01-701-1097,13,NON-TARGET,R2-A1,R2-NT03,TUMSTATE,Tumor State,PRESENT,,PRESENT,,,,,CT SCAN,INDEPENDENT ASSESSOR,RADIOLOGIST 2,,3,BASELINE,2014-01-01,1
1088,CDISCPILOT01,TR,01-701-1097,14,NON-TARGET,R2-A1,R2-NT04,TUMSTATE,Tumor State,PRESENT,,PRESENT,,,,,CT SCAN,INDEPENDENT ASSESSOR,RADIOLOGIST 2,,3,BASELINE,2014-01-01,1
1089,CDISCPILOT01,TR,01-701-1097,15,NON-TARGET,R2-A1,R2-NT05,TUMSTATE,Tumor State,PRESENT,,PRESENT,,,,,CT SCAN,INDEPENDENT ASSESSOR,RADIOLOGIST 2,,3,BASELINE,2014-01-01,1
1090,CDISCPILOT01,TR,01-701-1097,16,TARGET,R1-A1,R1-T01,DIAMETER,Diameter,14,mm,14,14,mm,,,CT SCAN,INDEPENDENT ASSESSOR,RADIOLOGIST 1,Y,3,BASELINE,2014-01-01,1
1091,CDISCPILOT01,TR,01-701-1097,17,TARGET,R1-A1,R1-T01,LDIAM,Longest Diameter,14,mm,14,14,mm,,,CT SCAN,INDEPENDENT ASSESSOR,RADIOLOGIST 1,Y,3,BASELINE,2014-01-01,1
1092,CDISCPILOT01,TR,01-701-1097,18,TARGET,R1-A1,R1-T01,LPERP,Longest Perpendicular,12.6,mm,12.6,12.6,mm,,,CT SCAN,INDEPENDENT ASSESSOR,RADIOLOGIST 1,Y,3,BASELINE,2014-01-01,1
1093,CDISCPILOT01,TR,01-701-1097,19,TARGET,R1-A1,R1-T02,DIAMETER,Diameter,11,mm,11,11,mm,,,CT SCAN,INDEPENDENT ASSESSOR,RADIOLOGIST 1,Y,3,BASELINE,2014-01-01,1
1094,CDISCPILOT01,TR,01-701-1097,20,TARGET,R1-A1,R1-T02,LDIAM,Longest Diameter,11,mm,11,11,mm,,,CT SCAN,INDEPENDENT ASSESSOR,RADIOLOGIST 1,Y,3,BASELINE,2014-01-01,1
1095,CDISCPILOT01,TR,01-701-1097,21,TARGET,R1-A1,R1-T02,LPERP,Longest Perpendicular,9.9,mm,9.9,9.9,mm,,,CT SCAN,INDEPENDENT ASSESSOR,RADIOLOGIST 1,Y,3,BASELINE,2014-01-01,1
1096,CDISCPILOT01,TR,01-701-1097,22,TARGET,R1-A1,R1-T03,DIAMETER,Diameter,14,mm,14,14,mm,,,CT SCAN,INDEPENDENT ASSESSOR,RADIOLOGIST 1,Y,3,BASELINE,2014-01-01,1
1097,CDISCPILOT01,TR,01-701-1097,23,TARGET,R1-A1,R1-T03,LDIAM,Longest Diameter,14,mm,14,14,mm,,,CT SCAN,INDEPENDENT ASSESSOR,RADIOLOGIST 1,Y,3,BASELINE,2014-01-01,1
1098,CDISCPILOT01,TR,01-701-1097,24,TARGET,R1-A1,R1-T03,LPERP,Longest Perpendicular,12.6,mm,12.6,12.6,mm,,,CT SCAN,INDEPENDENT ASSESSOR,RADIOLOGIST 1,Y,3,BASELINE,2014-01-01,1
1099,CDISCPILOT01,TR,01-701-1097,25,TARGET,R1-A1,R1-T04,DIAMETER,Diameter,16,mm,16,16,mm,,,CT SCAN,INDEPENDENT ASSESSOR,RADIOLOGIST 1,Y,3,BASELINE,2014-01-01,1
1100,CDISCPILOT01,TR,01-701-1097,26,TARGET,R1-A1,R1-T04,LDIAM,Longest Diameter,16,mm,16,16,mm,,,CT SCAN,INDEPENDENT ASSESSOR,RADIOLOGIST 1,Y,3,BASELINE,2014-01-01,1
1101,CDISCPILOT01,TR,01-701-1097,27,TARGET,R1-A1,R1-T04,LPERP,Longest Perpendicular,14.4,mm,14.4,14.4,mm,,,CT SCAN,INDEPENDENT ASSESSOR,RADIOLOGIST 1,Y,3,BASELINE,2014-01-01,1
1102,CDISCPILOT01,TR,01-701-1097,28,TARGET,R1-A1,R1-T05,DIAMETER,Diameter,14,mm,14,14,mm,,,CT SCAN,INDEPENDENT ASSESSOR,RADIOLOGIST 1,Y,3,BASELINE,2014-01-01,1
1103,CDISCPILOT01,TR,01-701-1097,29,TARGET,R1-A1,R1-T05,LDIAM,Longest Diameter,14,mm,14,14,mm,,,CT SCAN,INDEPENDENT ASSESSOR,RADIOLOGIST 1,Y,3,BASELINE,2014-01-01,1
1104,CDISCPILOT01,TR,01-701-1097,30,TARGET,R1-A1,R1-T05,LPERP,Longest Perpendicular,12.6,mm,12.6,12.6,mm,,,CT SCAN,INDEPENDENT ASSESSOR,RADIOLOGIST 1,Y,3,BASELINE,2014-01-01,1
1105,CDISCPILOT01,TR,01-701-1097,31,TARGET,R2-A1,R2-T01,DIAMETER,Diameter,15,mm,15,15,mm,,,CT SCAN,INDEPENDENT ASSESSOR,RADIOLOGIST 2,,3,BASELINE,2014-01-01,1
1106,CDISCPILOT01,TR,01-701-1097,32,TARGET,R2-A1,R2-T01,LDIAM,Longest Diameter,15,mm,15,15,mm,,,CT SCAN,INDEPENDENT ASSESSOR,RADIOLOGIST 2,,3,BASELINE,2014-01-01,1
1107,CDISCPILOT01,TR,01-701-1097,33,TARGET,R2-A1,R2-T01,LPERP,Longest Perpendicular,13.5,mm,13.5,13.5,mm,,,CT SCAN,INDEPENDENT ASSESSOR,RADIOLOGIST 2,,3,BASELINE,2014-01-01,1
1108,CDISCPILOT01,TR,01-701-1097,34,TARGET,R2-A1,R2-T02,DIAMETER,Diameter,17,mm,17,17,mm,,,CT SCAN,INDEPENDENT ASSESSOR,RADIOLOGIST 2,,3,BASELINE,2014-01-01,1
1109,CDISCPILOT01,TR,01-701-1097,35,TARGET,R2-A1,R2-T02,LDIAM,Longest Diameter,17,mm,17,17,mm,,,CT SCAN,INDEPENDENT ASSESSOR,RADIOLOGIST 2,,3,BASELINE,2014-01-01,1
1110,CDISCPILOT01,TR,01-701-1097,36,TARGET,R2-A1,R2-T02,LPERP,Longest Perpendicular,15.3,mm,15.3,15.3,mm,,,CT SCAN,INDEPENDENT ASSESSOR,RADIOLOGIST 2,,3,BASELINE,2014-01-01,1
1111,CDISCPILOT01,TR,01-701-1097,37,TARGET,R2-A1,R2-T03,DIAMETER,Diameter,17,mm,17,17,mm,,,CT SCAN,INDEPENDENT ASSESSOR,RADIOLOGIST 2,,3,BASELINE,2014-01-01,1
1112,CDISCPILOT01,TR,01-701-1097,38,TARGET,R2-A1,R2-T03,LDIAM,Longest Diameter,17,mm,17,17,mm,,,CT SCAN,INDEPENDENT ASSESSOR,RADIOLOGIST 2,,3,BASELINE,2014-01-01,1
1113,CDISCPILOT01,TR,01-701-1097,39,TARGET,R2-A1,R2-T03,LPERP,Longest Perpendicular,15.3,mm,15.3,15.3,mm,,,CT SCAN,INDEPENDENT ASSESSOR,RADIOLOGIST 2,,3,BASELINE,2014-01-01,1
1114,CDISCPILOT01,TR,01-701-1097,40,TARGET,R2-A1,R2-T04,DIAMETER,Diameter,10,mm,10,10,mm,,,CT SCAN,INDEPENDENT ASSESSOR,RADIOLOGIST 2,,3,BASELINE,2014-01-01,1
1115,CDISCPILOT01,TR,01-701-1097,41,TARGET,R2-A1,R2-T04,LDIAM,Longest Diameter,10,mm,10,10,mm,,,CT SCAN,INDEPENDENT ASSESSOR,RADIOLOGIST 2,,3,BASELINE,2014-01-01,1
1116,CDISCPILOT01,TR,01-701-1097,42,TARGET,R2-A1,R2-T04,LPERP,Longest Perpendicular,9,mm,9,9,mm,,,CT SCAN,INDEPENDENT ASSESSOR,RADIOLOGIST 2,,3,BASELINE,2014-01-01,1
1117,CDISCPILOT01,TR,01-701-1097,43,TARGET,R2-A1,R2-T05,DIAMETER,Diameter,15,mm,15,15,mm,,,CT SCAN,INDEPENDENT ASSESSOR,RADIOLOGIST 2,,3,BASELINE,2014-01-01,1
1118,CDISCPILOT01,TR,01-701-1097,44,TARGET,R2-A1,R2-T05,LDIAM,Longest Diameter,15,mm,15,15,mm,,,CT SCAN,INDEPENDENT ASSESSOR,RADIOLOGIST 2,,3,BASELINE,2014-01-01,1
1119,CDISCPILOT01,TR,01-701-1097,45,TARGET,R2-A1,R2-T05,LPERP,Longest Perpendicular,13.5,mm,13.5,13.5,mm,,,CT SCAN,INDEPENDENT ASSESSOR,RADIOLOGIST 2,,3,BASELINE,2014-01-01,1
1120,CDISCPILOT01,TR,01-701-1097,46,TARGET,A1,T01,DIAMETER,Diameter,15,mm,15,15,mm,,,CT SCAN,INVESTIGATOR,,,3,BASELINE,2014-01-01,1
1121,CDISCPILOT01,TR,01-701-1097,47,TARGET,A1,T01,LDIAM,Longest Diameter,15,mm,15,15,mm,,,CT SCAN,INVESTIGATOR,,,3,BASELINE,2014-01-01,1
1122,CDISCPILOT01,TR,01-701-1097,48,TARGET,A1,T01,LPERP,Longest Perpendicular,13.5,mm,13.5,13.5,mm,,,CT SCAN,INVESTIGATOR,,,3,BASELINE,2014-01-01,1
1123,CDISCPILOT01,TR,01-701-1097,49,TARGET,A1,T02,DIAMETER,Diameter,19,mm,19,19,mm,,,CT SCAN,INVESTIGATOR,,,3,BASELINE,2014-01-01,1
1124,CDISCPILOT01,TR,01-701-1097,50,TARGET,A1,T02,LDIAM,Longest Diameter,19,mm,19,19,mm,,,CT SCAN,INVESTIGATOR,,,3,BASELINE,2014-01-01,1
1125,CDISCPILOT01,TR,01-701-1097,51,TARGET,A1,T02,LPERP,Longest Perpendicular,17.1,mm,17.1,17.1,mm,,,CT SCAN,INVESTIGATOR,,,3,BASELINE,2014-01-01,1
1126,CDISCPILOT01,TR,01-701-1097,52,TARGET,A1,T03,DIAMETER,Diameter,19,mm,19,19,mm,,,CT SCAN,INVESTIGATOR,,,3,BASELINE,2014-01-01,1
1127,CDISCPILOT01,TR,01-701-1097,53,TARGET,A1,T03,LDIAM,Longest Diameter,19,mm,19,19,mm,,,CT SCAN,INVESTIGATOR,,,3,BASELINE,2014-01-01,1
1128,CDISCPILOT01,TR,01-701-1097,54,TARGET,A1,T03,LPERP,Longest Perpendicular,17.1,mm,17.1,17.1,mm,,,CT SCAN,INVESTIGATOR,,,3,BASELINE,2014-01-01,1
1129,CDISCPILOT01,TR,01-701-1097,55,TARGET,A1,T04,DIAMETER,Diameter,18,mm,18,18,mm,,,CT SCAN,INVESTIGATOR,,,3,BASELINE,2014-01-01,1
1130,CDISCPILOT01,TR,01-701-1097,56,TARGET,A1,T04,LDIAM,Longest Diameter,18,mm,18,18,mm,,,CT SCAN,INVESTIGATOR,,,3,BASELINE,2014-01-01,1
1131,CDISCPILOT01,TR,01-701-1097,57,TARGET,A1,T04,LPERP,Longest Perpendicular,16.2,mm,16.2,16.2,mm,,,CT SCAN,INVESTIGATOR,,,3,BASELINE,2014-01-01,1
1132,CDISCPILOT01,TR,01-701-1097,58,TARGET,A1,T05,DIAMETER,Diameter,13,mm,13,13,mm,,,CT SCAN,INVESTIGATOR,,,3,BASELINE,2014-01-01,1
1133,CDISCPILOT01,TR,01-701-1097,59,TARGET,A1,T05,LDIAM,Longest Diameter,13,mm,13,13,mm,,,CT SCAN,INVESTIGATOR,,,3,BASELINE,2014-01-01,1
1134,CDISCPILOT01,TR,01-701-1097,60,TARGET,A1,T05,LPERP,Longest Perpendicular,11.7,mm,11.7,11.700000000000001,mm,,,CT SCAN,INVESTIGATOR,,,3,BASELINE,2014-01-01,1
1135,CDISCPILOT01,TR,01-701-1097,61,TARGET,R1-A1,,SUMDIAM,Sum of Diameter,69,mm,69,69,mm,,,CT SCAN,INDEPENDENT ASSESSOR,RADIOLOGIST 1,Y,3,BASELINE,2014-01-01,1
1136,CDISCPILOT01,TR,01-701-1097,62,TARGET,R2-A1,,SUMDIAM,Sum of Diameter,74,mm,74,74,mm,,,CT SCAN,INDEPENDENT ASSESSOR,RADIOLOGIST 2,,3,BASELINE,2014-01-01,1
1137,CDISCPILOT01,TR,01-701-1097,63,TARGET,A1,,SUMDIAM,Sum of Diameter,84,mm,84,84,mm,,,CT SCAN,INVESTIGATOR,,,3,BASELINE,2014-01-01,1
1138,CDISCPILOT01,TR,01-701-1097,64,NON-TARGET,A2,NT01,TUMSTATE,Tumor State,PRESENT,,PRESENT,,,,,CT SCAN,INVESTIGATOR,,,7,WEEK 6,2014-02-11,42
1139,CDISCPILOT01,TR,01-701-1097,65,NON-TARGET,A2,NT02,TUMSTATE,Tumor State,PRESENT,,PRESENT,,,,,CT SCAN,INVESTIGATOR,,,7,WEEK 6,2014-02-11,42
1140,CDISCPILOT01,TR,01-701-1097,66,NON-TARGET,A2,NT03,TUMSTATE,Tumor State,PRESENT,,PRESENT,,,,,CT SCAN,INVESTIGATOR,,,7,WEEK 6,2014-02-11,42
1141,CDISCPILOT01,TR,01-701-1097,67,NON-TARGET,A2,NT04,TUMSTATE,Tumor State,PRESENT,,PRESENT,,,,,CT SCAN,INVESTIGATOR,,,7,WEEK 6,2014-02-11,42
1142,CDISCPILOT01,TR,01-701-1097,68,NON-TARGET,A2,NT05,TUMSTATE,Tumor State,UNEQUIVOCAL,,UNEQUIVOCAL,,,,,CT SCAN,INVESTIGATOR,,,7,WEEK 6,2014-02-11,42
1143,CDISCPILOT01,TR,01-701-1097,69,NON-TARGET,R1-A2,R1-NT01,TUMSTATE,Tumor State,ABSENT,,ABSENT,,,,,CT SCAN,INDEPENDENT ASSESSOR,RADIOLOGIST 1,Y,7,WEEK 6,2014-02-11,42
1144,CDISCPILOT01,TR,01-701-1097,70,NON-TARGET,R1-A2,R1-NT02,TUMSTATE,Tumor State,,,,,,NOT DONE,NOT ASSESSABLE: Image obscured,CT SCAN,INDEPENDENT ASSESSOR,RADIOLOGIST 1,Y,7,WEEK 6,2014-02-11,42
1145,CDISCPILOT01,TR,01-701-1097,71,NON-TARGET,R1-A2,R1-NT03,TUMSTATE,Tumor State,PRESENT,,PRESENT,,,,,CT SCAN,INDEPENDENT ASSESSOR,RADIOLOGIST 1,Y,7,WEEK 6,2014-02-11,42
1146,CDISCPILOT01,TR,01-701-1097,72,NON-TARGET,R1-A2,R1-NT04,TUMSTATE,Tumor State,PRESENT,,PRESENT,,,,,CT SCAN,INDEPENDENT ASSESSOR,RADIOLOGIST 1,Y,7,WEEK 6,2014-02-11,42
1147,CDISCPILOT01,TR,01-701-1097,73,NON-TARGET,R1-A2,R1-NT05,TUMSTATE,Tumor State,PRESENT,,PRESENT,,,,,CT SCAN,INDEPENDENT ASSESSOR,RADIOLOGIST 1,Y,7,WEEK 6,2014-02-11,42
1148,CDISCPILOT01,TR,01-701-1097,74,NON-TARGET,R2-A2,R2-NT01,TUMSTATE,Tumor State,ABSENT,,ABSENT,,,,,CT SCAN,INDEPENDENT ASSESSOR,RADIOLOGIST 2,,7,WEEK 6,2014-02-11,42
1149,CDISCPILOT01,TR,01-701-1097,75,NON-TARGET,R2-A2,R2-NT02,TUMSTATE,Tumor State,PRESENT,,PRESENT,,,,,CT SCAN,INDEPENDENT ASSESSOR,RADIOLOGIST 2,,7,WEEK 6,2014-02-11,42
1150,CDISCPILOT01,TR,01-701-1097,76,NON-TARGET,R2-A2,R2-NT03,TUMSTATE,Tumor State,PRESENT,,PRESENT,,,,,CT SCAN,INDEPENDENT ASSESSOR,RADIOLOGIST 2,,7,WEEK 6,2014-02-11,42
1151,CDISCPILOT01,TR,01-701-1097,77,NON-TARGET,R2-A2,R2-NT04,TUMSTATE,Tumor State,PRESENT,,PRESENT,,,,,CT SCAN,INDEPENDENT ASSESSOR,RADIOLOGIST 2,,7,WEEK 6,2014-02-11,42
1152,CDISCPILOT01,TR,01-701-1097,78,NON-TARGET,R2-A2,R2-NT05,TUMSTATE,Tumor State,UNEQUIVOCAL,,UNEQUIVOCAL,,,,,CT SCAN,INDEPENDENT ASSESSOR,RADIOLOGIST 2,,7,WEEK 6,2014-02-11,42
1153,CDISCPILOT01,TR,01-701-1097,79,TARGET,R1-A2,R1-T01,DIAMETER,Diameter,14,mm,14,14,mm,,,CT SCAN,INDEPENDENT ASSESSOR,RADIOLOGIST 1,Y,7,WEEK 6,2014-02-11,42
1154,CDISCPILOT01,TR,01-701-1097,80,TARGET,R1-A2,R1-T01,LDIAM,Longest Diameter,15.4,mm,15.4,15.400000000000002,mm,,,CT SCAN,INDEPENDENT ASSESSOR,RADIOLOGIST 1,Y,7,WEEK 6,2014-02-11,42
1155,CDISCPILOT01,TR,01-701-1097,81,TARGET,R1-A2,R1-T01,LPERP,Longest Perpendicular,14,mm,14,14,mm,,,CT SCAN,INDEPENDENT ASSESSOR,RADIOLOGIST 1,Y,7,WEEK 6,2014-02-11,42
1156,CDISCPILOT01,TR,01-701-1097,82,TARGET,R1-A2,R1-T02,DIAMETER,Diameter,11,mm,11,11,mm,,,CT SCAN,INDEPENDENT ASSESSOR,RADIOLOGIST 1,Y,7,WEEK 6,2014-02-11,42
1157,CDISCPILOT01,TR,01-701-1097,83,TARGET,R1-A2,R1-T02,LDIAM,Longest Diameter,11,mm,11,11,mm,,,CT SCAN,INDEPENDENT ASSESSOR,RADIOLOGIST 1,Y,7,WEEK 6,2014-02-11,42
1158,CDISCPILOT01,TR,01-701-1097,84,TARGET,R1-A2,R1-T02,LPERP,Longest Perpendicular,9.9,mm,9.9,9.9,mm,,,CT SCAN,INDEPENDENT ASSESSOR,RADIOLOGIST 1,Y,7,WEEK 6,2014-02-11,42
1159,CDISCPILOT01,TR,01-701-1097,85,TARGET,R1-A2,R1-T03,DIAMETER,Diameter,7,mm,7,7,mm,,,CT SCAN,INDEPENDENT ASSESSOR,RADIOLOGIST 1,Y,7,WEEK 6,2014-02-11,42
1160,CDISCPILOT01,TR,01-701-1097,86,TARGET,R1-A2,R1-T03,LDIAM,Longest Diameter,7,mm,7,7,mm,,,CT SCAN,INDEPENDENT ASSESSOR,RADIOLOGIST 1,Y,7,WEEK 6,2014-02-11,42
1161,CDISCPILOT01,TR,01-701-1097,87,TARGET,R1-A2,R1-T03,LPERP,Longest Perpendicular,6.3,mm,6.3,6.3,mm,,,CT SCAN,INDEPENDENT ASSESSOR,RADIOLOGIST 1,Y,7,WEEK 6,2014-02-11,42
1162,CDISCPILOT01,TR,01-701-1097,88,TARGET,R1-A2,R1-T04,DIAMETER,Diameter,11,mm,11,11,mm,,,CT SCAN,INDEPENDENT ASSESSOR,RADIOLOGIST 1,Y,7,WEEK 6,2014-02-11,42
1163,CDISCPILOT01,TR,01-701-1097,89,TARGET,R1-A2,R1-T04,LDIAM,Longest Diameter,11,mm,11,11,mm,,,CT SCAN,INDEPENDENT ASSESSOR,RADIOLOGIST 1,Y,7,WEEK 6,2014-02-11,42
1164,CDISCPILOT01,TR,01-701-1097,90,TARGET,R1-A2,R1-T04,LPERP,Longest Perpendicular,9.9,mm,9.9,9.9,mm,,,CT SCAN,INDEPENDENT ASSESSOR,RADIOLOGIST 1,Y,7,WEEK 6,2014-02-11,42
1165,CDISCPILOT01,TR,01-701-1097,91,TARGET,R1-A2,R1-T05,DIAMETER,Diameter,12,mm,12,12,mm,,,CT SCAN,INDEPENDENT ASSESSOR,RADIOLOGIST 1,Y,7,WEEK 6,2014-02-11,42
1166,CDISCPILOT01,TR,01-701-1097,92,TARGET,R1-A2,R1-T05,LDIAM,Longest Diameter,12,mm,12,12,mm,,,CT SCAN,INDEPENDENT ASSESSOR,RADIOLOGIST 1,Y,7,WEEK 6,2014-02-11,42
1167,CDISCPILOT01,TR,01-701-1097,93,TARGET,R1-A2,R1-T05,LPERP,Longest Perpendicular,10.8,mm,10.8,10.8,mm,,,CT SCAN,INDEPENDENT ASSESSOR,RADIOLOGIST 1,Y,7,WEEK 6,2014-02-11,42
1168,CDISCPILOT01,TR,01-701-1097,94,TARGET,R2-A2,R2-T01,DIAMETER,Diameter,13,mm,13,13,mm,,,CT SCAN,INDEPENDENT ASSESSOR,RADIOLOGIST 2,,7,WEEK 6,2014-02-11,42
1169,CDISCPILOT01,TR,01-701-1097,95,TARGET,R2-A2,R2-T01,LDIAM,Longest Diameter,14.3,mm,14.3,14.3,mm,,,CT SCAN,INDEPENDENT ASSESSOR,RADIOLOGIST 2,,7,WEEK 6,2014-02-11,42
1170,CDISCPILOT01,TR,01-701-1097,96,TARGET,R2-A2,R2-T01,LPERP,Longest Perpendicular,13,mm,13,13,mm,,,CT SCAN,INDEPENDENT ASSESSOR,RADIOLOGIST 2,,7,WEEK 6,2014-02-11,42
1171,CDISCPILOT01,TR,01-701-1097,97,TARGET,R2-A2,R2-T02,DIAMETER,Diameter,6,mm,6,6,mm,,,CT SCAN,INDEPENDENT ASSESSOR,RADIOLOGIST 2,,7,WEEK 6,2014-02-11,42
1172,CDISCPILOT01,TR,01-701-1097,98,TARGET,R2-A2,R2-T02,LDIAM,Longest Diameter,6,mm,6,6,mm,,,CT SCAN,INDEPENDENT ASSESSOR,RADIOLOGIST 2,,7,WEEK 6,2014-02-11,42
1173,CDISCPILOT01,TR,01-701-1097,99,TARGET,R2-A2,R2-T02,LPERP,Longest Perpendicular,5.4,mm,5.4,5.4,mm,,,CT SCAN,INDEPENDENT ASSESSOR,RADIOLOGIST 2,,7,WEEK 6,2014-02-11,42
1174,CDISCPILOT01,TR,01-701-1097,100,TARGET,R2-A2,R2-T03,DIAMETER,Diameter,6,mm,6,6,mm,,,CT SCAN,INDEPENDENT ASSESSOR,RADIOLOGIST 2,,7,WEEK 6,2014-02-11,42
1175,CDISCPILOT01,TR,01-701-1097,101,TARGET,R2-A2,R2-T03,LDIAM,Longest Diameter,6,mm,6,6,mm,,,CT SCAN,INDEPENDENT ASSESSOR,RADIOLOGIST 2,,7,WEEK 6,2014-02-11,42
1176,CDISCPILOT01,TR,01-701-1097,102,TARGET,R2-A2,R2-T03,LPERP,Longest Perpendicular,5.4,mm,5.4,5.4,mm,,,CT SCAN,INDEPENDENT ASSESSOR,RADIOLOGIST 2,,7,WEEK 6,2014-02-11,42
1177,CDISCPILOT01,TR,01-701-1097,103,TARGET,R2-A2,R2-T04,DIAMETER,Diameter,12,mm,12,12,mm,,,CT SCAN,INDEPENDENT ASSESSOR,RADIOLOGIST 2,,7,WEEK 6,2014-02-11,42
1178,CDISCPILOT01,TR,01-701-1097,104,TARGET,R2-A2,R2-T04,LDIAM,Longest Diameter,12,mm,12,12,mm,,,CT SCAN,INDEPENDENT ASSESSOR,RADIOLOGIST 2,,7,WEEK 6,2014-02-11,42
1179,CDISCPILOT01,TR,01-701-1097,105,TARGET,R2-A2,R2-T04,LPERP,Longest Perpendicular,10.8,mm,10.8,10.8,mm,,,CT SCAN,INDEPENDENT ASSESSOR,RADIOLOGIST 2,,7,WEEK 6,2014-02-11,42
1180,CDISCPILOT01,TR,01-701-1097,106,TARGET,R2-A2,R2-T05,DIAMETER,Diameter,6,mm,6,6,mm,,,CT SCAN,INDEPENDENT ASSESSOR,RADIOLOGIST 2,,7,WEEK 6,2014-02-11,42
1181,CDISCPILOT01,TR,01-701-1097,107,TARGET,R2-A2,R2-T05,LDIAM,Longest Diameter,6,mm,6,6,mm,,,CT SCAN,INDEPENDENT ASSESSOR,RADIOLOGIST 2,,7,WEEK 6,2014-02-11,42
1182,CDISCPILOT01,TR,01-701-1097,108,TARGET,R2-A2,R2-T05,LPERP,Longest Perpendicular,5.4,mm,5.4,5.4,mm,,,CT SCAN,INDEPENDENT ASSESSOR,RADIOLOGIST 2,,7,WEEK 6,2014-02-11,42
1183,CDISCPILOT01,TR,01-701-1097,109,TARGET,A2,T01,DIAMETER,Diameter,7,mm,7,7,mm,,,CT SCAN,INVESTIGATOR,,,7,WEEK 6,2014-02-11,42
1184,CDISCPILOT01,TR,01-701-1097,110,TARGET,A2,T01,LDIAM,Longest Diameter,7,mm,7,7,mm,,,CT SCAN,INVESTIGATOR,,,7,WEEK 6,2014-02-11,42
1185,CDISCPILOT01,TR,01-701-1097,111,TARGET,A2,T01,LPERP,Longest Perpendicular,6.3,mm,6.3,6.3,mm,,,CT SCAN,INVESTIGATOR,,,7,WEEK 6,2014-02-11,42
1186,CDISCPILOT01,TR,01-701-1097,112,TARGET,A2,T02,DIAMETER,Diameter,5,mm,5,5,mm,,,CT SCAN,INVESTIGATOR,,,7,WEEK 6,2014-02-11,42
1187,CDISCPILOT01,TR,01-701-1097,113,TARGET,A2,T02,LDIAM,Longest Diameter,5.5,mm,5.5,5.5,mm,,,CT SCAN,INVESTIGATOR,,,7,WEEK 6,2014-02-11,42
1188,CDISCPILOT01,TR,01-701-1097,114,TARGET,A2,T02,LPERP,Longest Perpendicular,5,mm,5,5,mm,,,CT SCAN,INVESTIGATOR,,,7,WEEK 6,2014-02-11,42
1189,CDISCPILOT01,TR,01-701-1097,115,TARGET,A2,T03,DIAMETER,Diameter,11,mm,11,11,mm,,,CT SCAN,INVESTIGATOR,,,7,WEEK 6,2014-02-11,42
1190,CDISCPILOT01,TR,01-701-1097,116,TARGET,A2,T03,LDIAM,Longest Diameter,11,mm,11,11,mm,,,CT SCAN,INVESTIGATOR,,,7,WEEK 6,2014-02-11,42
1191,CDISCPILOT01,TR,01-701-1097,117,TARGET,A2,T03,LPERP,Longest Perpendicular,9.9,mm,9.9,9.9,mm,,,CT SCAN,INVESTIGATOR,,,7,WEEK 6,2014-02-11,42
1192,CDISCPILOT01,TR,01-701-1097,118,TARGET,A2,T04,DIAMETER,Diameter,12,mm,12,12,mm,,,CT SCAN,INVESTIGATOR,,,7,WEEK 6,2014-02-11,42
1193,CDISCPILOT01,TR,01-701-1097,119,TARGET,A2,T04,LDIAM,Longest Diameter,12,mm,12,12,mm,,,CT SCAN,INVESTIGATOR,,,7,WEEK 6,2014-02-11,42
1194,CDISCPILOT01,TR,01-701-1097,120,TARGET,A2,T04,LPERP,Longest Perpendicular,10.8,mm,10.8,10.8,mm,,,CT SCAN,INVESTIGATOR,,,7,WEEK 6,2014-02-11,42
1195,CDISCPILOT01,TR,01-701-1097,121,TARGET,A2,T05,DIAMETER,Diameter,7,mm,7,7,mm,,,CT SCAN,INVESTIGATOR,,,7,WEEK 6,2014-02-11,42
1196,CDISCPILOT01,TR,01-701-1097,122,TARGET,A2,T05,LDIAM,Longest Diameter,7,mm,7,7,mm,,,CT SCAN,INVESTIGATOR,,,7,WEEK 6,2014-02-11,42
1197,CDISCPILOT01,TR,01-701-1097,123,TARGET,A2,T05,LPERP,Longest Perpendicular,6.3,mm,6.3,6.3,mm,,,CT SCAN,INVESTIGATOR,,,7,WEEK 6,2014-02-11,42
1198,CDISCPILOT01,TR,01-701-1097,124,TARGET,R1-A2,,SUMDIAM,Sum of Diameter,55,mm,55,55,mm,,,CT SCAN,INDEPENDENT ASSESSOR,RADIOLOGIST 1,Y,7,WEEK 6,2014-02-11,42
1199,CDISCPILOT01,TR,01-701-1097,125,TARGET,R2-A2,,SUMDIAM,Sum of Diameter,43,mm,43,43,mm,,,CT SCAN,INDEPENDENT ASSESSOR,RADIOLOGIST 2,,7,WEEK 6,2014-02-11,42
1200,CDISCPILOT01,TR,01-701-1097,126,TARGET,A2,,SUMDIAM,Sum of Diameter,42,mm,42,42,mm,,,CT SCAN,INVESTIGATOR,,,7,WEEK 6,2014-02-11,42
1201,CDISCPILOT01,TR,01-701-1097,127,NON-TARGET,A3,NT01,TUMSTATE,Tumor State,UNEQUIVOCAL,,UNEQUIVOCAL,,,,,CT SCAN,INVESTIGATOR,,,9,WEEK 12,2014-03-26,84
1202,CDISCPILOT01,TR,01-701-1097,128,NON-TARGET,A3,NT02,TUMSTATE,Tumor State,PRESENT,,PRESENT,,,,,CT SCAN,INVESTIGATOR,,,9,WEEK 12,2014-03-26,84
1203,CDISCPILOT01,TR,01-701-1097,129,NON-TARGET,A3,NT03,TUMSTATE,Tumor State,ABSENT,,ABSENT,,,,,CT SCAN,INVESTIGATOR,,,9,WEEK 12,2014-03-26,84
1204,CDISCPILOT01,TR,01-701-1097,130,NON-TARGET,A3,NT04,TUMSTATE,Tumor State,ABSENT,,ABSENT,,,,,CT SCAN,INVESTIGATOR,,,9,WEEK 12,2014-03-26,84
1205,CDISCPILOT01,TR,01-701-1097,131,NON-TARGET,A3,NT05,TUMSTATE,Tumor State,PRESENT,,PRESENT,,,,,CT SCAN,INVESTIGATOR,,,9,WEEK 12,2014-03-26,84
1206,CDISCPILOT01,TR,01-701-1097,132,NON-TARGET,R1-A3,R1-NT01,TUMSTATE,Tumor State,,,,,,NOT DONE,NOT ASSESSABLE: Image obscured,CT SCAN,INDEPENDENT ASSESSOR,RADIOLOGIST 1,Y,9,WEEK 12,2014-03-26,84
1207,CDISCPILOT01,TR,01-701-1097,133,NON-TARGET,R1-A3,R1-NT02,TUMSTATE,Tumor State,ABSENT,,ABSENT,,,,,CT SCAN,INDEPENDENT ASSESSOR,RADIOLOGIST 1,Y,9,WEEK 12,2014-03-26,84
1208,CDISCPILOT01,TR,01-701-1097,134,NON-TARGET,R1-A3,R1-NT03,TUMSTATE,Tumor State,PRESENT,,PRESENT,,,,,CT SCAN,INDEPENDENT ASSESSOR,RADIOLOGIST 1,Y,9,WEEK 12,2014-03-26,84
1209,CDISCPILOT01,TR,01-701-1097,135,NON-TARGET,R1-A3,R1-NT04,TUMSTATE,Tumor State,ABSENT,,ABSENT,,,,,CT SCAN,INDEPENDENT ASSESSOR,RADIOLOGIST 1,Y,9,WEEK 12,2014-03-26,84
1210,CDISCPILOT01,TR,01-701-1097,136,NON-TARGET,R1-A3,R1-NT05,TUMSTATE,Tumor State,PRESENT,,PRESENT,,,,,CT SCAN,INDEPENDENT ASSESSOR,RADIOLOGIST 1,Y,9,WEEK 12,2014-03-26,84
1211,CDISCPILOT01,TR,01-701-1097,137,NON-TARGET,R2-A3,R2-NT01,TUMSTATE,Tumor State,UNEQUIVOCAL,,UNEQUIVOCAL,,,,,CT SCAN,INDEPENDENT ASSESSOR,RADIOLOGIST 2,,9,WEEK 12,2014-03-26,84
1212,CDISCPILOT01,TR,01-701-1097,138,NON-TARGET,R2-A3,R2-NT02,TUMSTATE,Tumor State,ABSENT,,ABSENT,,,,,CT SCAN,INDEPENDENT ASSESSOR,RADIOLOGIST 2,,9,WEEK 12,2014-03-26,84
1213,CDISCPILOT01,TR,01-701-1097,139,NON-TARGET,R2-A3,R2-NT03,TUMSTATE,Tumor State,PRESENT,,PRESENT,,,,,CT SCAN,INDEPENDENT ASSESSOR,RADIOLOGIST 2,,9,WEEK 12,2014-03-26,84
1214,CDISCPILOT01,TR,01-701-1097,140,NON-TARGET,R2-A3,R2-NT04,TUMSTATE,Tumor State,PRESENT,,PRESENT,,,,,CT SCAN,INDEPENDENT ASSESSOR,RADIOLOGIST 2,,9,WEEK 12,2014-03-26,84
1215,CDISCPILOT01,TR,01-701-1097,141,NON-TARGET,R2-A3,R2-NT05,TUMSTATE,Tumor State,PRESENT,,PRESENT,,,,,CT SCAN,INDEPENDENT ASSESSOR,RADIOLOGIST 2,,9,WEEK 12,2014-03-26,84
1216,CDISCPILOT01,TR,01-701-1097,142,TARGET,R1-A3,R1-T01,DIAMETER,Diameter,11,mm,11,11,mm,,,CT SCAN,INDEPENDENT ASSESSOR,RADIOLOGIST 1,Y,9,WEEK 12,2014-03-26,84
1217,CDISCPILOT01,TR,01-701-1097,143,TARGET,R1-A3,R1-T01,LDIAM,Longest Diameter,11,mm,11,11,mm,,,CT SCAN,INDEPENDENT ASSESSOR,RADIOLOGIST 1,Y,9,WEEK 12,2014-03-26,84
1218,CDISCPILOT01,TR,01-701-1097,144,TARGET,R1-A3,R1-T01,LPERP,Longest Perpendicular,9.9,mm,9.9,9.9,mm,,,CT SCAN,INDEPENDENT ASSESSOR,RADIOLOGIST 1,Y,9,WEEK 12,2014-03-26,84
1219,CDISCPILOT01,TR,01-701-1097,145,TARGET,R1-A3,R1-T02,DIAMETER,Diameter,9,mm,9,9,mm,,,CT SCAN,INDEPENDENT ASSESSOR,RADIOLOGIST 1,Y,9,WEEK 12,2014-03-26,84
1220,CDISCPILOT01,TR,01-701-1097,146,TARGET,R1-A3,R1-T02,LDIAM,Longest Diameter,9.9,mm,9.9,9.9,mm,,,CT SCAN,INDEPENDENT ASSESSOR,RADIOLOGIST 1,Y,9,WEEK 12,2014-03-26,84
1221,CDISCPILOT01,TR,01-701-1097,147,TARGET,R1-A3,R1-T02,LPERP,Longest Perpendicular,9,mm,9,9,mm,,,CT SCAN,INDEPENDENT ASSESSOR,RADIOLOGIST 1,Y,9,WEEK 12,2014-03-26,84
1222,CDISCPILOT01,TR,01-701-1097,148,TARGET,R1-A3,R1-T03,DIAMETER,Diameter,14,mm,14,14,mm,,,CT SCAN,INDEPENDENT ASSESSOR,RADIOLOGIST 1,Y,9,WEEK 12,2014-03-26,84
1223,CDISCPILOT01,TR,01-701-1097,149,TARGET,R1-A3,R1-T03,LDIAM,Longest Diameter,14,mm,14,14,mm,,,CT SCAN,INDEPENDENT ASSESSOR,RADIOLOGIST 1,Y,9,WEEK 12,2014-03-26,84
1224,CDISCPILOT01,TR,01-701-1097,150,TARGET,R1-A3,R1-T03,LPERP,Longest Perpendicular,12.6,mm,12.6,12.6,mm,,,CT SCAN,INDEPENDENT ASSESSOR,RADIOLOGIST 1,Y,9,WEEK 12,2014-03-26,84
1225,CDISCPILOT01,TR,01-701-1097,151,TARGET,R1-A3,R1-T04,DIAMETER,Diameter,14,mm,14,14,mm,,,CT SCAN,INDEPENDENT ASSESSOR,RADIOLOGIST 1,Y,9,WEEK 12,2014-03-26,84
1226,CDISCPILOT01,TR,01-701-1097,152,TARGET,R1-A3,R1-T04,LDIAM,Longest Diameter,14,mm,14,14,mm,,,CT SCAN,INDEPENDENT ASSESSOR,RADIOLOGIST 1,Y,9,WEEK 12,2014-03-26,84
1227,CDISCPILOT01,TR,01-701-1097,153,TARGET,R1-A3,R1-T04,LPERP,Longest Perpendicular,12.6,mm,12.6,12.6,mm,,,CT SCAN,INDEPENDENT ASSESSOR,RADIOLOGIST 1,Y,9,WEEK 12,2014-03-26,84
1228,CDISCPILOT01,TR,01-701-1097,154,TARGET,R1-A3,R1-T05,DIAMETER,Diameter,8,mm,8,8,mm,,,CT SCAN,INDEPENDENT ASSESSOR,RADIOLOGIST 1,Y,9,WEEK 12,2014-03-26,84
1229,CDISCPILOT01,TR,01-701-1097,155,TARGET,R1-A3,R1-T05,LDIAM,Longest Diameter,8,mm,8,8,mm,,,CT SCAN,INDEPENDENT ASSESSOR,RADIOLOGIST 1,Y,9,WEEK 12,2014-03-26,84
1230,CDISCPILOT01,TR,01-701-1097,156,TARGET,R1-A3,R1-T05,LPERP,Longest Perpendicular,7.2,mm,7.2,7.2,mm,,,CT SCAN,INDEPENDENT ASSESSOR,RADIOLOGIST 1,Y,9,WEEK 12,2014-03-26,84
1231,CDISCPILOT01,TR,01-701-1097,157,TARGET,R2-A3,R2-T01,DIAMETER,Diameter,5,mm,5,5,mm,,,CT SCAN,INDEPENDENT ASSESSOR,RADIOLOGIST 2,,9,WEEK 12,2014-03-26,84
1232,CDISCPILOT01,TR,01-701-1097,158,TARGET,R2-A3,R2-T01,LDIAM,Longest Diameter,5.5,mm,5.5,5.5,mm,,,CT SCAN,INDEPENDENT ASSESSOR,RADIOLOGIST 2,,9,WEEK 12,2014-03-26,84
1233,CDISCPILOT01,TR,01-701-1097,159,TARGET,R2-A3,R2-T01,LPERP,Longest Perpendicular,5,mm,5,5,mm,,,CT SCAN,INDEPENDENT ASSESSOR,RADIOLOGIST 2,,9,WEEK 12,2014-03-26,84
1234,CDISCPILOT01,TR,01-701-1097,160,TARGET,R2-A3,R2-T02,DIAMETER,Diameter,9,mm,9,9,mm,,,CT SCAN,INDEPENDENT ASSESSOR,RADIOLOGIST 2,,9,WEEK 12,2014-03-26,84
1235,CDISCPILOT01,TR,01-701-1097,161,TARGET,R2-A3,R2-T02,LDIAM,Longest Diameter,9,mm,9,9,mm,,,CT SCAN,INDEPENDENT ASSESSOR,RADIOLOGIST 2,,9,WEEK 12,2014-03-26,84
1236,CDISCPILOT01,TR,01-701-1097,162,TARGET,R2-A3,R2-T02,LPERP,Longest Perpendicular,8.1,mm,8.1,8.1,mm,,,CT SCAN,INDEPENDENT ASSESSOR,RADIOLOGIST 2,,9,WEEK 12,2014-03-26,84
1237,CDISCPILOT01,TR,01-701-1097,163,TARGET,R2-A3,R2-T03,DIAMETER,Diameter,6,mm,6,6,mm,,,CT SCAN,INDEPENDENT ASSESSOR,RADIOLOGIST 2,,9,WEEK 12,2014-03-26,84
1238,CDISCPILOT01,TR,01-701-1097,164,TARGET,R2-A3,R2-T03,LDIAM,Longest Diameter,6,mm,6,6,mm,,,CT SCAN,INDEPENDENT ASSESSOR,RADIOLOGIST 2,,9,WEEK 12,2014-03-26,84
1239,CDISCPILOT01,TR,01-701-1097,165,TARGET,R2-A3,R2-T03,LPERP,Longest Perpendicular,5.4,mm,5.4,5.4,mm,,,CT SCAN,INDEPENDENT ASSESSOR,RADIOLOGIST 2,,9,WEEK 12,2014-03-26,84
1240,CDISCPILOT01,TR,01-701-1097,166,TARGET,R2-A3,R2-T04,DIAMETER,Diameter,6,mm,6,6,mm,,,CT SCAN,INDEPENDENT ASSESSOR,RADIOLOGIST 2,,9,WEEK 12,2014-03-26,84
1241,CDISCPILOT01,TR,01-701-1097,167,TARGET,R2-A3,R2-T04,LDIAM,Longest Diameter,6,mm,6,6,mm,,,CT SCAN,INDEPENDENT ASSESSOR,RADIOLOGIST 2,,9,WEEK 12,2014-03-26,84
1242,CDISCPILOT01,TR,01-701-1097,168,TARGET,R2-A3,R2-T04,LPERP,Longest Perpendicular,5.4,mm,5.4,5.4,mm,,,CT SCAN,INDEPENDENT ASSESSOR,RADIOLOGIST 2,,9,WEEK 12,2014-03-26,84
1243,CDISCPILOT01,TR,01-701-1097,169,TARGET,R2-A3,R2-T05,DIAMETER,Diameter,8,mm,8,8,mm,,,CT SCAN,INDEPENDENT ASSESSOR,RADIOLOGIST 2,,9,WEEK 12,2014-03-26,84
1244,CDISCPILOT01,TR,01-701-1097,170,TARGET,R2-A3,R2-T05,LDIAM,Longest Diameter,8,mm,8,8,mm,,,CT SCAN,INDEPENDENT ASSESSOR,RADIOLOGIST 2,,9,WEEK 12,2014-03-26,84
1245,CDISCPILOT01,TR,01-701-1097,171,TARGET,R2-A3,R2-T05,LPERP,Longest Perpendicular,7.2,mm,7.2,7.2,mm,,,CT SCAN,INDEPENDENT ASSESSOR,RADIOLOGIST 2,,9,WEEK 12,2014-03-26,84
1246,CDISCPILOT01,TR,01-701-1097,172,TARGET,A3,T01,DIAMETER,Diameter,9,mm,9,9,mm,,,CT SCAN,INVESTIGATOR,,,9,WEEK 12,2014-03-26,84
1247,CDISCPILOT01,TR,01-701-1097,173,TARGET,A3,T01,LDIAM,Longest Diameter,9,mm,9,9,mm,,,CT SCAN,INVESTIGATOR,,,9,WEEK 12,2014-03-26,84
1248,CDISCPILOT01,TR,01-701-1097,174,TARGET,A3,T01,LPERP,Longest Perpendicular,8.1,mm,8.1,8.1,mm,,,CT SCAN,INVESTIGATOR,,,9,WEEK 12,2014-03-26,84
1249,CDISCPILOT01,TR,01-701-1097,175,TARGET,A3,T02,DIAMETER,Diameter,8,mm,8,8,mm,,,CT SCAN,INVESTIGATOR,,,9,WEEK 12,2014-03-26,84
1250,CDISCPILOT01,TR,01-701-1097,176,TARGET,A3,T02,LDIAM,Longest Diameter,8,mm,8,8,mm,,,CT SCAN,INVESTIGATOR,,,9,WEEK 12,2014-03-26,84
1251,CDISCPILOT01,TR,01-701-1097,177,TARGET,A3,T02,LPERP,Longest Perpendicular,7.2,mm,7.2,7.2,mm,,,CT SCAN,INVESTIGATOR,,,9,WEEK 12,2014-03-26,84
1252,CDISCPILOT01,TR,01-701-1097,178,TARGET,A3,T03,DIAMETER,Diameter,13,mm,13,13,mm,,,CT SCAN,INVESTIGATOR,,,9,WEEK 12,2014-03-26,84
1253,CDISCPILOT01,TR,01-701-1097,179,TARGET,A3,T03,LDIAM,Longest Diameter,13,mm,13,13,mm,,,CT SCAN,INVESTIGATOR,,,9,WEEK 12,2014-03-26,84
1254,CDISCPILOT01,TR,01-701-1097,180,TARGET,A3,T03,LPERP,Longest Perpendicular,11.7,mm,11.7,11.700000000000001,mm,,,CT SCAN,INVESTIGATOR,,,9,WEEK 12,2014-03-26,84
1255,CDISCPILOT01,TR,01-701-1097,181,TARGET,A3,T04,DIAMETER,Diameter,5,mm,5,5,mm,,,CT SCAN,INVESTIGATOR,,,9,WEEK 12,2014-03-26,84
1256,CDISCPILOT01,TR,01-701-1097,182,TARGET,A3,T04,LDIAM,Longest Diameter,5,mm,5,5,mm,,,CT SCAN,INVESTIGATOR,,,9,WEEK 12,2014-03-26,84
1257,CDISCPILOT01,TR,01-701-1097,183,TARGET,A3,T04,LPERP,Longest Perpendicular,4.5,mm,4.5,4.5,mm,,,CT SCAN,INVESTIGATOR,,,9,WEEK 12,2014-03-26,84
1258,CDISCPILOT01,TR,01-701-1097,184,TARGET,A3,T05,DIAMETER,Diameter,14,mm,14,14,mm,,,CT SCAN,INVESTIGATOR,,,9,WEEK 12,2014-03-26,84
1259,CDISCPILOT01,TR,01-701-1097,185,TARGET,A3,T05,LDIAM,Longest Diameter,14,mm,14,14,mm,,,CT SCAN,INVESTIGATOR,,,9,WEEK 12,2014-03-26,84
